timestamp,gyro_x,gyro_y,gyro_z
1498117097307,-0.04170227,0.09194946,0.012664795
1498117097327,-0.08659363,0.103256226,0.011886597
1498117097347,-0.106918335,0.09164429,0.017242432
1498117097366,-0.0868988,0.10722351,0.008224487
1498117097387,-0.07713318,0.08003235,-0.017425537
1498117097407,-0.049179077,0.05834961,-0.019256592
1498117097427,-0.03147888,0.049041748,-0.0068969727
1498117097447,-0.046432495,0.07316589,0.007156372
1498117097467,-0.08232117,0.06523132,0.020141602
1498117097488,-0.055603027,0.02659607,0.02319336
1498117097508,0.011291504,0.03300476,0.008987427
1498117097530,7.4768066E-4,0.05392456,-0.01071167
1498117097549,-0.048110962,0.0667572,-0.04185486
1498117097568,-0.054382324,0.07575989,-0.042770386
1498117097589,-0.022766113,0.047210693,-0.025512695
1498117097609,0.025787354,0.021697998,-0.018951416
1498117097629,0.04977417,0.008575439,-0.0078125
1498117097649,0.051757813,0.019714355,-0.027053833
1498117097669,-0.010406494,0.012542725,-0.031326294
1498117097689,-0.027954102,0.04385376,-0.020324707
1498117097709,-0.033462524,0.08203125,-0.011779785
1498117097730,-0.04032898,0.090423584,-0.027053833
1498117097749,-0.057739258,0.05682373,-0.036514282
1498117097769,-0.05987549,0.026290894,-0.022766113
1498117097789,-0.060791016,0.015136719,-0.013916016
1498117097810,-0.05529785,0.014678955,-0.0035247803
1498117097831,-0.07040405,0.026290894,0.023956299
1498117097850,-0.08843994,-0.012649536,0.030212402
1498117097870,-0.018951416,-0.07939148,0.018157959
1498117097892,0.08534241,-0.09680176,-0.013305664
1498117097911,0.13284302,-0.07527161,-0.023529053
1498117097931,0.08030701,-0.06930542,-0.03666687
1498117097951,0.03831482,-0.04273987,-0.054992676
1498117097971,-0.0021514893,-0.014343262,-0.06706238
1498117097991,-0.045211792,-0.0010528564,-0.053619385
1498117098012,-0.041244507,0.019866943,-0.019561768
1498117098032,-0.028564453,0.05682373,-0.011474609
1498117098052,-0.021697998,0.057281494,0.0012054443
1498117098071,-0.042617798,0.06185913,0.010055542
1498117098092,-0.05101013,0.04446411,0.048843384
1498117098112,-0.02734375,0.033309937,0.08442688
1498117098133,-0.0047454834,0.048583984,0.11558533
1498117098152,-0.0059661865,0.03300476,0.12825012
1498117098173,-0.0035247803,-0.0033416748,0.13131714
1498117098192,0.022888184,-0.007461548,0.13711548
1498117098212,0.055419922,-9.0026855E-4,0.13528442
1498117098233,0.05343628,-0.011581421,0.12245178
1498117098253,0.05419922,-0.038467407,0.09176636
1498117098273,0.035873413,-0.015701294,0.077560425
1498117098293,-0.010238647,-1.373291E-4,0.06060791
1498117098313,-0.035751343,-0.023345947,0.038467407
1498117098334,-0.024139404,-0.018005371,0.0131073
1498117098354,-0.010406494,0.003692627,0.0037994385
1498117098373,-0.019104004,-0.018157959,-0.017578125
1498117098394,-0.019104004,-0.012954712,-0.036209106
1498117098414,-0.034835815,0.0018463135,-0.030715942
1498117098434,-0.06843567,0.012542725,-0.026885986
1498117098454,-0.07408142,0.04170227,-0.020935059
1498117098474,-0.052703857,0.07133484,-0.010253906
1498117098494,-0.023986816,0.092559814,-0.0042877197
1498117098515,-0.045059204,0.06324768,-0.025985718
1498117098536,-0.04673767,0.0023040771,-0.04246521
1498117098555,0.0015106201,0.0067443848,-0.057281494
1498117098575,0.007461548,0.028427124,-0.08018494
1498117098595,-0.0035247803,-0.0028839111,-0.098968506
1498117098615,0.026397705,-0.040756226,-0.11393738
1498117098636,0.03541565,-0.052200317,-0.11607361
1498117098656,0.004714966,-0.040756226,-0.10798645
1498117098676,-0.056518555,-0.024719238,-0.091796875
1498117098696,-0.048416138,-0.028381348,-0.091033936
1498117098716,-0.014831543,-0.03755188,-0.101867676
1498117098737,0.008850098,-0.05189514,-0.0953064
1498117098756,0.015258789,-0.02670288,-0.08721924
1498117098776,0.0028839111,-0.012191772,-0.07865906
1498117098796,-0.003982544,-0.017700195,-0.08905029
1498117098817,0.003036499,-0.01234436,-0.10569763
1498117098838,0.007156372,3.2043457E-4,-0.10508728
1498117098857,1.373291E-4,0.00491333,-0.09561157
1498117098877,-0.02947998,0.0035247803,-0.08843994
1498117098897,-0.028259277,0.0029144287,-0.06567383
1498117098917,0.0065460205,0.003829956,-0.046142578
1498117098938,-0.0061187744,0.010864258,-0.043533325
1498117098958,-0.047348022,0.02659607,-0.021697998
1498117098979,-0.06460571,0.035446167,0.011123657
1498117098999,-0.053466797,0.038650513,0.029907227
1498117099018,-0.03161621,0.025512695,0.029449463
1498117099039,-0.006576538,0.024459839,0.032058716
1498117099060,0.0037994385,0.043548584,0.031448364
1498117099079,-0.010238647,0.046905518,0.021514893
1498117099099,-0.022918701,0.041244507,0.043807983
1498117099119,-0.0021514893,0.040023804,0.05770874
1498117099142,0.016021729,0.039108276,0.0289917
1498117099160,-0.0016937256,0.0388031,0.0146484375
1498117099179,-0.00642395,0.021087646,0.020599365
1498117099200,-4.7302246E-4,1.5258789E-5,0.02609253
1498117099220,-0.04109192,0.00491333,0.03250122
1498117099240,-0.08262634,0.015899658,0.031143188
1498117099260,-0.0743866,0.028579712,0.03388977
1498117099280,-0.05621338,0.0236969,0.032058716
1498117099300,-0.01727295,0.017730713,0.020751953
1498117099320,0.0012054443,0.04324341,-0.002456665
1498117099342,0.0068511963,0.040023804,-0.010559082
1498117099361,0.005630493,0.025985718,-0.021392822
1498117099381,2.89917E-4,0.0140686035,-0.03239441
1498117099401,0.009597778,0.014221191,-0.034835815
1498117099421,-0.022613525,0.028427124,-0.04460144
1498117099442,-0.070877075,0.022781372,-0.05545044
1498117099462,-0.09576416,0.008270264,-0.054992676
1498117099482,-0.093933105,0.02154541,-0.045059204
1498117099502,-0.0856781,0.017120361,-0.03804016
1498117099522,-0.032699585,-0.018005371,-0.03529358
1498117099543,0.016174316,0.009185791,-0.038650513
1498117099562,0.018920898,0.007965088,-0.020477295
1498117099582,-0.0012359619,0.01574707,-0.024291992
1498117099602,-0.023834229,0.03590393,-0.03453064
1498117099623,-0.029937744,-0.0062408447,-0.027359009
1498117099643,-0.005203247,-0.020141602,-0.018035889
1498117099663,-0.008712769,-0.0015106201,-0.015899658
1498117099685,-0.026275635,0.018493652,-0.0078125
1498117099703,-0.063079834,-0.010513306,-0.02507019
1498117099723,-0.035446167,-0.022888184,-0.042770386
1498117099744,-0.0071868896,0.023391724,-0.027496338
1498117099764,-0.023223877,0.022003174,-0.020019531
1498117099785,-0.04689026,-0.018463135,-0.02017212
1498117099804,-0.054534912,0.0068969727,0.012359619
1498117099824,-0.07392883,0.008117676,0.056488037
1498117099845,-0.05819702,-0.013717651,0.053894043
1498117099865,-0.034072876,-0.0076141357,0.039535522
1498117099884,-0.044448853,0.015899658,0.023956299
1498117099905,-0.05255127,0.023529053,0.021057129
1498117099925,-0.0496521,0.016052246,0.016326904
1498117099946,-0.036819458,0.014678955,-0.004135132
1498117099965,-0.037124634,-1.373291E-4,-0.0287323
1498117099985,-0.034835815,0.012542725,-0.04399109
1498117100005,-0.05117798,0.054840088,-0.032089233
1498117100025,-0.07102966,0.05041504,-0.018188477
1498117100046,-0.045516968,0.008117676,-0.020629883
1498117100066,0.013580322,-0.008071899,-0.01864624
1498117100086,0.024108887,-7.4768066E-4,-0.006729126
1498117100106,0.008987427,0.021865845,0.005630493
1498117100126,-0.010238647,0.027664185,0.0079193115
1498117100147,-0.005355835,0.02017212,-0.009185791
1498117100166,-3.2043457E-4,-0.0013580322,-0.013000488
1498117100186,0.008682251,0.0018463135,-0.020935059
1498117100207,-0.01864624,0.0236969,-0.025817871
1498117100227,-0.037734985,0.014831543,-0.045669556
1498117100247,-0.033309937,-0.004562378,-0.058654785
1498117100267,-0.026733398,-0.011276245,-0.03956604
1498117100287,-0.031784058,-0.0053253174,-0.035751343
1498117100308,-0.03315735,0.0033874512,-0.024459839
1498117100327,5.950928E-4,0.01071167,-0.01940918
1498117100348,0.004257202,0.014831543,-0.023376465
1498117100368,-0.043533325,0.0044403076,-0.019714355
1498117100388,-0.05697632,-0.014480591,0.010055542
1498117100409,-0.028869629,-0.0018157959,0.043807983
1498117100428,-0.0013885498,0.01651001,0.0410614
1498117100449,-0.002609253,0.0140686035,0.004714966
1498117100468,-4.7302246E-4,0.015136719,-0.014984131
1498117100489,0.0065460205,0.018798828,-0.0140686035
1498117100510,0.0050201416,0.018188477,-0.0140686035
1498117100529,0.0010528564,0.016052246,-0.023986816
1498117100564,-0.015594482,0.032852173,-0.0388031
1498117100570,-0.029174805,0.016815186,-0.02078247
1498117100589,-0.009933472,0.011932373,-7.7819824E-4
1498117100609,0.010223389,0.029953003,0.0027313232
1498117100629,0.010528564,0.011169434,-7.7819824E-4
1498117100650,0.025939941,0.014526367,-0.016815186
1498117100670,0.020904541,0.008575439,-0.013763428
1498117100690,0.006088257,0.0113220215,-0.019866943
1498117100710,-0.0023040771,0.0053710938,-0.030715942
1498117100730,-0.013458252,-4.4250488E-4,-0.028884888
1498117100751,-0.0116119385,-0.0012054443,-0.029037476
1498117100770,0.0036468506,0.014831543,-0.027664185
1498117100790,0.003189087,0.0019989014,-0.01864624
1498117100811,0.016174316,-0.023651123,-0.0047454834
1498117100832,0.007003784,-0.0131073,-0.009643555
1498117100851,-0.022155762,-0.0079193115,-0.0073394775
1498117100871,-0.030700684,-0.017852783,-0.010253906
1498117100891,-0.041549683,-0.019378662,-0.013153076
1498117100912,-0.043533325,-0.0022735596,0.0028839111
1498117100932,-0.011016846,0.007507324,-1.6784668E-4
1498117100955,-0.0126953125,-0.007003784,-0.010101318
1498117100972,-0.05039978,-0.0025787354,-0.0061187744
1498117100993,-0.056671143,0.022476196,0.030670166
1498117101012,-0.04673767,0.021392822,0.055114746
1498117101032,-0.016815186,0.024291992,0.04777527
1498117101053,-0.02017212,0.02217102,0.056793213
1498117101073,-0.016052246,0.040481567,0.055877686
1498117101093,-0.01361084,0.04751587,0.05189514
1498117101115,-0.0062713623,0.025985718,0.04548645
1498117101133,0.029159546,0.021392822,0.05496216
1498117101154,0.047332764,0.028274536,0.054656982
1498117101174,0.010375977,0.060333252,0.018615723
1498117101194,-0.019561768,0.032699585,0.0132751465
1498117101214,-0.0116119385,0.04032898,0.036483765
1498117101234,0.023651123,0.07621765,0.053588867
1498117101255,0.00730896,0.07408142,0.044570923
1498117101275,-0.033462524,0.045074463,0.038467407
1498117101294,-0.05178833,0.042312622,0.05067444
1498117101315,-0.052856445,0.058502197,0.06137085
1498117101335,-0.030090332,0.07133484,0.041519165
1498117101356,-0.0036773682,0.04307556,0.0410614
1498117101375,0.01739502,0.034225464,0.056030273
1498117101395,0.038467407,0.018341064,0.059387207
1498117101415,0.031600952,0.041244507,0.05053711
1498117101435,0.02029419,0.019104004,0.055725098
1498117101456,0.023956299,0.023391724,0.05831909
1498117101476,-0.016662598,0.036209106,0.041671753
1498117101496,-0.03742981,0.034683228,0.050369263
1498117101516,0.028076172,0.022476196,0.057403564
1498117101536,0.054656982,0.025817871,0.053894043
1498117101557,0.021362305,0.031021118,0.045333862
1498117101577,-0.039871216,0.02017212,0.056793213
1498117101597,-0.026733398,0.008575439,0.06427002
1498117101616,0.05618286,0.015594482,0.06137085
1498117101637,0.061065674,0.016052246,0.04258728
1498117101657,0.018615723,0.0073547363,0.02243042
1498117101677,0.019073486,0.0056762695,0.01020813
1498117101698,0.061828613,0.004135132,-0.013305664
1498117101717,0.055114746,0.016357422,-0.026290894
1498117101737,0.035568237,0.0072021484,-0.046142578
1498117101767,-0.0126953125,-0.014343262,-0.04827881
1498117101777,-0.019256592,-0.017242432,-0.01864624
1498117101798,-0.015289307,-0.0010528564,0.004257202
1498117101818,-0.009017944,0.0027770996,0.010971069
1498117101838,0.019226074,-0.039382935,0.037094116
1498117101860,0.045333862,-0.030975342,0.04899597
1498117101879,0.03388977,-0.024414063,0.041519165
1498117101899,0.030075073,-0.032348633,0.013885498
1498117101919,0.02609253,-0.0289917,-0.0016937256
1498117101939,0.01739502,-0.013717651,-0.011474609
1498117101960,-0.0030670166,-0.023651123,-0.016662598
1498117101979,-0.0045928955,-0.039535522,-0.010559082
1498117101999,0.00730896,-0.026397705,-0.0078125
1498117102020,0.006088257,0.0070495605,-0.0068969727
1498117102040,-0.0073394775,9.3078613E-4,0.008682251
1498117102060,0.0036468506,-0.012802124,0.0033416748
1498117102080,0.015411377,-0.027923584,0.0018157959
1498117102100,0.030227661,-0.03968811,-0.0033721924
1498117102120,0.034194946,-0.043502808,-0.012542725
1498117102140,0.024871826,-0.03907776,-0.026428223
1498117102161,-0.03239441,-0.02609253,-0.02658081
1498117102181,-0.06414795,-0.026397705,-0.013153076
1498117102201,-0.031784058,-0.045333862,-0.013153076
1498117102221,0.0076141357,-0.028839111,-0.022003174
1498117102241,0.016326904,-0.013259888,-0.027664185
1498117102261,0.00730896,-0.019226074,-0.045059204
1498117102281,0.012207031,-0.025024414,-0.06706238
1498117102303,-0.007797241,-0.011428833,-0.07347107
1498117102322,-0.014373779,-0.020141602,-0.06536865
1498117102341,-0.012527466,-0.014343262,-0.05697632
1498117102365,-0.011169434,1.6784668E-4,-0.067977905
1498117102382,-0.011779785,-0.0135650635,-0.06124878
1498117102402,-0.014678955,0.0113220215,-0.03315735
1498117102429,-0.009490967,-0.012802124,-0.005203247
1498117102443,0.036026,-0.01953125,0.001663208
1498117102463,0.040298462,-0.009597778,-0.0013885498
1498117102483,0.018310547,-0.020904541,-0.0045928955
1498117102503,0.0033416748,-0.010971069,-0.018341064
1498117102523,-0.011306763,-5.950928E-4,-0.023986816
1498117102543,-0.015899658,0.0058288574,-0.031326294
1498117102564,-0.021240234,-0.010665894,-0.03727722
1498117102588,0.006088257,-0.019073486,-0.034072876
1498117102603,0.015411377,0.0015411377,-0.034988403
1498117102624,-0.0036773682,-0.010055542,-0.038497925
1498117102644,-0.012390137,0.016662598,-0.045669556
1498117102664,-0.03300476,0.033920288,-0.050720215
1498117102684,-0.049957275,0.01940918,-0.040023804
1498117102706,-0.023071289,0.0113220215,-0.023529053
1498117102724,-0.003982544,0.01864624,-0.0178833
1498117102744,-0.051483154,0.030410767,-0.015594482
1498117102766,-0.0635376,0.03437805,-0.018188477
1498117102785,-0.035446167,0.012237549,-0.020935059
1498117102812,0.018920898,-0.005783081,-0.01574707
1498117102825,0.05038452,0.038650513,-0.037124634
1498117102845,0.019378662,0.028274536,-0.032546997
1498117102866,-0.0019989014,0.016967773,-0.024597168
1498117102889,-0.020629883,0.021865845,-0.032089233
1498117102905,-0.026428223,0.013916016,-0.032699585
1498117102935,-0.037582397,0.006134033,-0.025680542
1498117102947,-0.042617798,0.013305664,-0.02230835
1498117102967,-0.035446167,0.0016937256,-0.031784058
1498117102987,-0.002456665,0.0047454834,-0.0099487305
1498117103007,0.01663208,0.013458252,0.008377075
1498117103027,0.006088257,0.016357422,0.008377075
1498117103057,-0.024291992,0.0018463135,-0.0032196045
1498117103067,-0.03147888,-1.373291E-4,-0.013000488
1498117103088,-0.013458252,-1.373291E-4,-0.023986816
1498117103107,-0.011474609,0.006591797,-0.023529053
1498117103127,-0.016967773,1.6784668E-4,-0.019714355
1498117103147,-0.011779785,0.004135132,-0.0154418945
1498117103168,-0.007949829,0.0021514893,-0.01071167
1498117103188,-0.0126953125,-0.00944519,-0.014526367
1498117103208,-0.03437805,-0.019073486,-0.0048980713
1498117103229,-0.03437805,0.005218506,-0.02658081
1498117103248,-0.03239441,-0.013259888,-0.033920288
1498117103270,-0.027801514,0.0058288574,-0.026290894
1498117103288,-0.011169434,-1.373291E-4,-0.0337677
1498117103308,-0.019561768,-0.0131073,-0.031326294
1498117103328,-0.031173706,-0.009902954,-0.028274536
1498117103349,-0.021697998,-0.0027313232,-0.018035889
1498117103370,-0.015289307,-0.0076141357,-9.3078613E-4
1498117103389,4.4250488E-4,0.0068969727,0.0033416748
1498117103409,0.005783081,0.003829956,0.0053253174
1498117103429,-0.004135132,0.006439209,-0.006286621
1498117103456,-0.014526367,0.013458252,-0.016967773
1498117103471,-0.038650513,0.0140686035,-0.03453064
1498117103493,-0.045059204,-9.0026855E-4,-0.041397095
1498117103510,-0.038345337,-0.005935669,-0.04812622
1498117103530,-0.034072876,0.0023040771,-0.037124634
1498117103550,-0.009628296,-0.0012054443,-0.026428223
1498117103571,4.4250488E-4,0.0012359619,-0.02507019
1498117103594,0.0119018555,-0.0066986084,-0.035751343
1498117103610,0.0041046143,-0.0054779053,-0.02368164
1498117103631,0.007461548,0.020324707,-0.019866943
1498117103651,-0.005203247,0.015136719,-0.03224182
1498117103671,-0.01071167,0.0055236816,-0.02017212
1498117103691,5.950928E-4,0.009796143,-0.008117676
1498117103711,-0.0076446533,0.018493652,-0.0059814453
1498117103731,-0.016357422,6.2561035E-4,-0.0029144287
1498117103752,-0.012527466,-0.012191772,-0.011474609
1498117103773,-0.0074920654,-0.013412476,-0.010253906
1498117103792,-0.0061187744,0.005065918,-0.007507324
1498117103812,-0.0058135986,-0.0025787354,-0.002609253
1498117103832,-0.0035247803,9.3078613E-4,-0.014526367
1498117103852,-0.010101318,0.0047454834,-0.03315735
1498117103873,-0.009796143,0.010101318,-0.023376465
1498117103892,0.0065460205,-0.0024261475,-0.03147888
1498117103913,-0.020324707,-0.0022735596,-0.017578125
1498117103933,-0.063690186,0.013305664,-0.0078125
1498117103953,-0.07133484,-0.0024261475,0.010818481
1498117103974,-0.040634155,-0.004257202,0.011276245
1498117103994,-0.031311035,0.02230835,0.005783081
1498117104013,-0.01940918,0.032089233,-0.014984131
1498117104034,0.015411377,0.0140686035,-0.034225464
1498117104053,0.048080444,0.028427124,-0.054382324
1498117104074,0.022125244,0.028579712,-0.06185913
1498117104136,0.016784668,0.01864624,-0.063079834
1498117104136,0.019683838,0.022613525,-0.05545044
1498117104136,0.0132751465,0.02720642,-0.040481567
1498117104154,-0.0030670166,0.0113220215,-0.020629883
1498117104175,-0.015594482,0.0043029785,-0.016967773
1498117104195,-0.015136719,0.011779785,-1.5258789E-5
1498117104215,-0.034683228,0.013305664,0.0021209717
1498117104235,-0.028411865,0.013916016,-0.008880615
1498117104255,-0.018798828,0.010253906,0.003036499
1498117104276,-0.012832642,0.008575439,0.0053253174
1498117104295,-0.023223877,0.0053710938,-0.007965088
1498117104316,-0.009796143,-0.0050201416,-0.037887573
1498117104335,0.005630493,-0.0048675537,-0.054229736
1498117104356,0.0063934326,0.0032196045,-0.059570313
1498117104377,-0.0048980713,4.7302246E-4,-0.058654785
1498117104397,-0.009017944,0.012542725,-0.047058105
1498117104418,-0.01574707,0.019714355,-0.032699585
1498117104436,-0.023223877,-0.0037994385,-0.023834229
1498117104457,-0.025360107,-0.0013580322,-0.009796143
1498117104477,-0.027648926,0.020324707,0.008071899
1498117104497,-0.031173706,0.024597168,0.015106201
1498117104517,-0.007797241,0.010101318,-0.002609253
1498117104537,0.0041046143,0.012084961,-0.025512695
1498117104557,-0.032546997,0.0178833,-0.018188477
1498117104578,-0.08308411,0.03147888,-0.014373779
1498117104598,-0.09439087,0.023529053,-0.003829956
1498117104618,-0.05819702,-0.007461548,0.0062408447
1498117104639,-0.0018463135,0.0068969727,0.011886597
1498117104658,0.0050201416,0.041397095,0.0077667236
1498117104678,-0.013000488,0.018493652,-0.009796143
1498117104698,-0.01651001,-0.0037994385,-7.7819824E-4
1498117104718,-0.036972046,0.013000488,0.0051727295
1498117104740,-0.04109192,0.011932373,0.0015106201
1498117104758,-0.037124634,0.006591797,-0.0016937256
1498117104779,-0.04750061,0.009033203,-6.2561035E-4
1498117104799,-0.0488739,-0.0024261475,0.0013580322
1498117104819,-0.04093933,-0.0028839111,-0.002456665
1498117104839,-0.033309937,0.011016846,-0.008575439
1498117104859,-0.03453064,0.014526367,7.4768066E-4
1498117104880,-0.034835815,0.01940918,0.0015106201
1498117104900,-0.030258179,0.015899658,7.4768066E-4
1498117104920,-0.027038574,0.010101318,0.0022735596
1498117104940,-0.024902344,0.011932373,-0.022766113
1498117104960,-0.03161621,0.010406494,-0.02017212
1498117104984,-0.039871216,0.011474609,-0.017425537
1498117105000,-0.044296265,0.020629883,-0.016204834
1498117105020,-0.043380737,-0.0051727295,-0.016204834
1498117105041,-0.022155762,0.0058288574,-0.011474609
1498117105061,-0.025970459,0.018035889,-0.009033203
1498117105081,-0.0337677,-0.006088257,-0.0073394775
1498117105128,-0.021697998,-0.020904541,-0.0047454834
1498117105128,-0.0021514893,0.002456665,-0.0059814453
1498117105142,-0.0059661865,0.015594482,-0.019561768
1498117105161,-0.037582397,-0.001663208,-0.023223877
1498117105182,-0.03666687,-0.0024261475,-0.014221191
1498117105202,0.0012054443,-0.0048675537,-0.014221191
1498117105227,0.010986328,-0.008987427,-0.022613525
1498117105246,-0.01071167,0.016204834,-0.018035889
1498117105262,-0.061706543,0.02230835,0.0013580322
1498117105283,-0.0635376,-0.0048675537,0.014343262
1498117105307,-0.016967773,-0.0146484375,0.009597778
1498117105322,0.010528564,0.01071167,0.004257202
1498117105343,-0.0073394775,0.023391724,-0.010406494
1498117105363,-0.010543823,-4.4250488E-4,-0.019104004
1498117105384,0.004257202,-2.89917E-4,-0.0140686035
1498117105403,-0.0036773682,0.0033874512,-0.0012359619
1498117105423,-0.0013885498,-0.016479492,0.023651123
1498117105444,0.025024414,-0.015396118,-0.0030670166
1498117105464,0.0018157959,-0.0036468506,-0.020629883
1498117105484,-0.04689026,-0.0034942627,-0.0030670166
1498117105504,-0.047348022,-0.014480591,0.012802124
1498117105524,-0.0056610107,0.003829956,0.015411377
1498117105545,0.015716553,0.02796936,0.0131073
1498117105574,-0.006576538,0.018798828,-0.0027618408
1498117105588,0.009902954,-0.0037994385,-0.009490967
1498117105604,0.031906128,-0.0034942627,-0.0032196045
1498117105624,0.027633667,0.019866943,0.0068511963
1498117105645,-0.014678955,0.015899658,0.0034942627
1498117105665,-0.032546997,-0.010818481,-0.0044403076
1498117105686,2.89917E-4,0.022613525,-0.0056762695
1498117105706,-0.011917114,0.022781372,-0.0015411377
1498117105726,-0.02078247,-0.003189087,-0.0061187744
1498117105746,-4.7302246E-4,0.024597168,-0.008728027
1498117105766,-0.020935059,0.03742981,-0.003829956
1498117105787,-0.03666687,4.7302246E-4,0.0037994385
1498117105806,-0.010543823,-0.003036499,-0.010101318
1498117105826,-0.0013885498,0.027511597,-0.018798828
1498117105846,-0.01361084,0.028274536,-0.007507324
1498117105866,-0.017425537,-0.0027313232,-0.0019989014
1498117105887,-0.0021514893,0.0023040771,1.373291E-4
1498117105907,0.007003784,0.017120361,-0.013458252
1498117105927,-0.007949829,0.03239441,-0.015594482
1498117105947,-0.0018463135,0.03010559,-0.016052246
1498117105967,-0.0021514893,0.004135132,-0.01864624
1498117105998,-0.021087646,0.008728027,-0.019561768
1498117106009,-0.04170227,0.0018463135,-0.0053710938
1498117106029,-0.03086853,-0.0066986084,-0.0023040771
1498117106050,-0.018951416,-0.0033416748,-0.0058135986
1498117106068,-0.008407593,0.013916016,-0.012390137
1498117106090,0.0036468506,0.009490967,-0.024139404
1498117106108,0.010375977,0.0016937256,-0.023223877
1498117106128,-0.0074920654,0.0027770996,-0.022766113
1498117106149,-0.013916016,0.008270264,-0.016204834
1498117106169,-0.003982544,0.0019989014,-0.015899658
1498117106190,0.021209717,0.008575439,-0.013000488
1498117106209,0.0068511963,0.028121948,-0.021697998
1498117106229,-0.021087646,0.021865845,-0.03086853
1498117106249,-0.018341064,0.0044403076,-0.016357422
1498117106269,0.004714966,0.0029144287,0.001663208
1498117106290,0.031600952,0.01651001,-0.002456665
1498117106310,0.005935669,0.027053833,-0.012542725
1498117106330,-0.013458252,0.0099487305,-0.01727295
1498117106350,-0.009796143,0.016052246,-0.013305664
1498117106370,-0.017578125,0.005218506,-0.0070343018
1498117106391,-0.015289307,0.018951416,-0.014678955
1498117106410,-0.022766113,0.021392822,-0.026885986
1498117106430,-0.023529053,0.024765015,-0.02230835
1498117106451,-0.025817871,0.008422852,-0.019866943
1498117106471,-0.015899658,0.009490967,-0.021087646
1498117106491,-0.0062713623,0.010101318,-0.020324707
1498117106511,0.003189087,0.0236969,-0.020629883
1498117106531,-0.0140686035,0.025985718,-0.009338379
1498117106551,-0.024139404,-4.4250488E-4,-0.011779785
1498117106571,-0.0070343018,0.012084961,-0.014678955
1498117106593,-0.007797241,0.023086548,-0.014831543
1498117106612,-0.011016846,0.02154541,-0.014678955
1498117106632,-0.0019989014,0.016052246,-0.0072021484
1498117106652,0.0034942627,0.0073547363,0.014953613
1498117106672,0.012512207,0.018341064,-1.6784668E-4
1498117106695,0.010681152,4.7302246E-4,-0.03727722
1498117106712,0.018005371,0.016662598,-0.038497925
1498117106733,0.03694153,0.019104004,-0.03605652
1498117106752,0.024871826,-0.009597778,-0.043533325
1498117106774,-0.0047454834,-0.0037994385,-0.04949951
1498117106794,-0.048110962,0.012542725,-0.017425537
1498117106813,-0.041244507,0.014526367,0.010055542
1498117106833,-0.0047454834,0.006591797,0.014953613
1498117106854,0.014953613,0.0056762695,0.039230347
1498117106873,0.04824829,0.014984131,0.052978516
1498117106894,0.045944214,0.015899658,0.035720825
1498117106914,0.019683838,0.025680542,-0.009796143
1498117106934,-0.022003174,3.2043457E-4,-0.019104004
1498117106954,-0.0018463135,0.0016937256,-0.014221191
1498117106974,0.021972656,-0.0076141357,-0.026428223
1498117106995,0.0010528564,3.2043457E-4,-0.030258179
1498117107015,-0.016967773,0.003829956,-0.0099487305
1498117107034,-0.018341064,0.009796143,0.021362305
1498117107055,-0.023834229,0.0055236816,0.029144287
1498117107075,-0.009796143,7.7819824E-4,0.025177002
1498117107095,-0.0045928955,0.019561768,0.012054443
1498117107115,-0.027801514,0.013153076,0.0033416748
1498117107137,-0.03529358,-0.008377075,-3.2043457E-4
1498117107155,-0.0116119385,0.0035247803,-0.011627197
1498117107175,-0.0032196045,0.01727295,-0.0035247803
1498117107196,-0.014373779,0.014678955,-0.0021514893
1498117107217,-0.026123047,-0.008682251,0.0010528564
1498117107236,-0.006729126,0.0044403076,0.003189087
1498117107256,-0.019714355,0.013000488,0.00440979
1498117107276,-0.02734375,-0.005783081,0.0048675537
1498117107297,-0.029022217,0.0029144287,1.373291E-4
1498117107317,-0.031784058,0.02520752,-0.007659912
1498117107337,-0.060638428,0.011932373,-0.019866943
1498117107357,-0.059570313,0.0018463135,-0.03437805
1498117107377,-0.04093933,0.007507324,-0.010406494
1498117107398,-0.043533325,0.017425537,0.0079193115
1498117107417,-0.05682373,0.0073547363,-0.0033721924
1498117107437,-0.04109192,0.020629883,0.010818481
1498117107458,-0.019866943,0.022476196,0.019836426
1498117107478,-0.008407593,0.0013885498,0.022888184
1498117107498,-0.0070343018,-0.0010528564,-7.7819824E-4
1498117107518,-0.039108276,0.0033874512,-0.014984131
1498117107538,-0.056518555,0.010559082,-0.0056762695
1498117107559,-0.04612732,1.5258789E-5,0.007461548
1498117107578,-0.019714355,-9.0026855E-4,-0.012542725
1498117107599,-0.009017944,0.007965088,-0.022766113
1498117107619,-0.009017944,0.036361694,-0.030715942
1498117107639,-0.029327393,0.0154418945,-0.028411865
1498117107659,-0.03727722,0.008575439,-0.022003174
1498117107679,-0.03453064,0.018035889,-0.017578125
1498117107699,-0.02658081,0.02078247,-0.019256592
1498117107720,-0.027648926,0.012542725,-0.028884888
1498117107740,-0.03605652,-0.0025787354,-0.022918701
1498117107759,-0.04032898,0.003692627,-0.021850586
1498117107780,-0.036361694,0.0023040771,-0.011016846
1498117107801,-0.023376465,0.010559082,0.006088257
1498117107820,-0.013137817,0.0055236816,-0.002456665
1498117107840,-0.013763428,0.009643555,-0.01864624
1498117107860,-0.02154541,0.016052246,-0.020935059
1498117107881,-0.020019531,0.009643555,-0.009185791
1498117107901,-1.6784668E-4,0.0058288574,-0.014221191
1498117107921,-0.0019989014,0.008117676,-0.024902344
1498117107941,-0.009628296,0.019104004,-0.020935059
1498117107961,-0.016967773,-1.373291E-4,-0.0072021484
1498117107981,1.373291E-4,-0.018463135,-0.0036773682
1498117108002,-0.0061187744,-0.003036499,-0.016357422
1498117108021,-0.020935059,0.009643555,-0.02154541
1498117108041,-0.031311035,0.009033203,-0.013153076
1498117108062,-0.010101318,0.0032196045,-0.0019989014
1498117108082,0.007156372,-0.014022827,-6.2561035E-4
1498117108102,0.0041046143,-0.011581421,4.4250488E-4
1498117108123,-0.019714355,-0.008529663,-0.0061187744
1498117108143,-0.027648926,-0.0039520264,-0.0056762695
1498117108163,-0.015136719,-0.010513306,-0.007965088
1498117108183,-0.009628296,-0.021362305,-7.7819824E-4
1498117108205,0.013122559,-0.0019683838,-0.0021514893
1498117108223,0.01953125,0.0029144287,-0.018798828
1498117108243,-0.01361084,-0.005630493,-0.032852173
1498117108264,-0.068878174,-0.006088257,-0.018493652
1498117108283,-0.06750488,-0.013717651,-0.010101318
1498117108304,-0.044296265,0.017425537,0.014190674
1498117108324,-0.032852173,-0.003189087,0.017700195
1498117108344,-0.008560181,-0.014343262,-0.0032196045
1498117108364,0.031600952,0.015136719,-0.0073394775
1498117108384,0.0146484375,0.025985718,-0.024459839
1498117108405,-0.019256592,0.0019989014,-0.028579712
1498117108425,-0.013000488,0.006439209,-0.02796936
1498117108444,9.0026855E-4,-0.0010528564,-0.025680542
1498117108465,0.010375977,-0.0024261475,-0.011779785
1498117108485,0.019378662,6.2561035E-4,-0.009796143
1498117108505,0.009155273,0.023391724,-0.0078125
1498117108525,-0.018798828,0.017425537,-0.008422852
1498117108545,-0.014984131,0.014678955,-0.0053710938
1498117108565,0.0050201416,0.011016846,-0.010406494
1498117108591,0.017852783,0.0059814453,-0.009338379
1498117108607,0.014038086,0.018493652,-0.016357422
1498117108627,-0.008255005,0.025512695,-0.026123047
1498117108646,-0.011169434,0.0027770996,-0.023986816
1498117108666,-0.0058135986,0.0015411377,-0.019866943
1498117108686,4.4250488E-4,0.007659912,-0.021697998
1498117108707,-1.5258789E-5,0.010559082,-0.021087646
1498117108726,-0.012527466,-0.005935669,-0.0061187744
1498117108747,-0.0140686035,0.008270264,-4.7302246E-4
1498117108767,-0.015289307,0.010559082,-0.009033203
1498117108787,-0.0032196045,0.00491333,-0.006591797
1498117108808,0.003036499,0.011627197,-0.0029144287
1498117108828,-0.008712769,0.02078247,-0.007965088
1498117108848,-0.02658081,-0.0018157959,-0.03086853
1498117108867,-0.029174805,4.7302246E-4,-0.032699585
1498117108888,-0.019561768,0.0043029785,-0.02368164
1498117108908,-0.009628296,0.0056762695,-0.0068969727
1498117108928,2.89917E-4,0.008880615,-0.007659912
1498117108948,0.0076141357,0.022918701,-0.0126953125
1498117108968,0.009155273,0.023391724,-0.019256592
1498117108988,-0.023071289,0.0016937256,-0.025985718
1498117109009,-0.051940918,-0.012496948,-0.019104004
1498117109029,-0.02017212,0.009338379,0.008071899
1498117109049,-0.0076446533,0.023529053,0.024261475
1498117109069,-0.013916016,0.011627197,0.016784668
1498117109092,-0.009017944,-0.0021209717,0.012191772
1498117109109,0.001663208,0.006286621,-0.024291992
1498117109129,-3.2043457E-4,0.013916016,-0.0287323
1498117109149,-0.031311035,0.022781372,-0.026748657
1498117109169,-0.04109192,-0.0036468506,-0.01940918
1498117109190,-0.003982544,-0.014953613,-0.0044403076
1498117109211,0.020599365,0.008117676,-0.002609253
1498117109230,-0.005203247,0.02230835,0.010971069
1498117109250,-0.042160034,0.020324707,0.0051727295
1498117109270,-0.043380737,-4.4250488E-4,-0.011627197
1498117109290,-0.025054932,-0.00944519,-0.001083374
1498117109311,-0.0126953125,0.0058288574,0.005783081
1498117109332,-1.5258789E-5,0.0236969,0.019683838
1498117109351,-0.012832642,0.03300476,0.01739502
1498117109371,-0.02444458,0.0044403076,-0.0045928955
1498117109392,-0.018493652,0.0015411377,-0.023529053
1498117109412,-0.022918701,0.012542725,-0.009338379
1498117109432,-0.090270996,0.033462524,0.0010528564
1498117109452,-0.083236694,0.033615112,-0.007965088
1498117109472,-0.05529785,0.0072021484,-0.023223877
1498117109492,-0.014831543,0.0013885498,-0.013153076
1498117109514,0.019836426,0.010864258,-0.0036773682
1498117109533,0.028549194,0.024154663,0.02243042
1498117109552,0.023040771,0.03163147,0.012969971
1498117109573,0.001663208,0.0070495605,0.0027313232
1498117109594,0.0021209717,-0.01586914,-0.0013885498
1498117109613,0.0037994385,-0.0010528564,-0.010864258
1498117109633,-0.023834229,-0.0048675537,-0.013763428
1498117109657,-0.027648926,-0.010513306,-0.010559082
1498117109674,-0.029022217,-0.0027313232,-0.016052246
1498117109693,-0.03804016,0.0070495605,-0.0178833
1498117109714,-0.028564453,0.007507324,-0.014373779
1498117109734,-0.0036773682,0.004135132,-0.012084961
1498117109755,0.057861328,0.0043029785,-0.013000488
1498117109774,0.040908813,0.021697998,-0.008270264
1498117109794,-0.03100586,0.006591797,-0.005050659
1498117109815,-0.047348022,-0.007461548,-0.002609253
1498117109835,-0.016815186,0.0070495605,0.0028839111
1498117109857,-0.0013885498,0.021240234,0.007156372
1498117109875,-0.001083374,0.020935059,0.0065460205
1498117109895,0.012359619,0.0029144287,2.89917E-4
1498117109916,0.03526306,-0.0034942627,0.0028839111
1498117109935,0.02746582,0.018035889,-0.0044403076
1498117109955,-0.009628296,0.01940918,-0.0126953125
1498117109975,-0.020019531,0.010559082,-0.005203247
1498117109995,0.007003784,0.009643555,-0.001083374
1498117110017,0.012359619,0.010101318,-0.0027618408
1498117110036,-0.0016937256,-0.021972656,-0.00642395
1498117110056,-0.02734375,0.0033874512,-0.018035889
1498117110076,-0.01071167,0.0072021484,-0.0032196045
1498117110096,0.0025787354,-0.0021209717,-0.0019989014
1498117110116,0.03755188,-0.012954712,-0.0027618408
1498117110138,0.041671753,0.0019989014,-0.009338379
1498117110156,0.044265747,0.014831543,-0.010559082
1498117110177,0.015563965,0.015136719,-0.0018463135
1498117110197,0.008239746,-0.00730896,9.0026855E-4
1498117110218,0.027160645,-0.015090942,-0.0035247803
1498117110238,0.031295776,-0.02609253,-0.023376465
1498117110257,0.016326904,-0.050216675,-0.023223877
1498117110277,0.01373291,-0.040603638,-0.016357422
1498117110298,0.004714966,3.2043457E-4,-0.018493652
1498117110318,-0.016815186,0.013000488,-0.024291992
1498117110338,-0.022155762,0.0023040771,-0.042922974
1498117110358,-0.019714355,-0.025177002,-0.048431396
1498117110378,0.016326904,-0.016174316,-0.046142578
1498117110400,0.031143188,-0.004714966,-0.031173706
1498117110419,0.031295776,0.009490967,-0.045837402
1498117110439,0.009155273,0.0029144287,-0.046279907
1498117110458,0.008377075,0.005218506,-0.036972046
1498117110479,0.018920898,-0.0079193115,-0.020935059
1498117110499,0.038619995,-0.00440979,0.0012054443
1498117110519,0.05831909,0.008422852,0.010055542
1498117110539,0.016784668,0.0043029785,0.0076141357
1498117110559,-0.012390137,0.012084961,-6.2561035E-4
1498117110580,-0.046432495,0.0067443848,0.0015106201
1498117110599,-0.02368164,-0.02822876,0.009292603
1498117110620,0.020446777,6.2561035E-4,0.016021729
1498117110640,0.03694153,0.015899658,0.014953613
1498117110660,0.024719238,-4.4250488E-4,-0.0059814453
1498117110680,0.031600952,-0.023651123,-0.02154541
1498117110700,0.018005371,-0.016937256,-0.017425537
1498117110721,-0.014984131,-0.008834839,0.0037994385
1498117110741,-0.025360107,-0.004714966,0.015106201
1498117110761,-0.030090332,3.2043457E-4,0.015563965
1498117110781,-0.037734985,0.0047454834,0.007461548
1498117110801,-0.062316895,-0.021362305,0.007461548
1498117110822,-0.039413452,-0.009292603,0.007156372
1498117110841,-0.032852173,0.01864624,-0.0012359619
1498117110861,-0.031173706,0.0055236816,-0.0154418945
1498117110881,-0.010543823,-0.0062408447,-0.019866943
1498117110901,0.0027313232,0.009796143,-0.009338379
1498117110924,0.021514893,0.02017212,-0.013305664
1498117110942,0.012359619,0.029342651,-0.020935059
1498117110962,0.0053253174,0.0044403076,-0.009185791
1498117110982,0.0033416748,0.0015411377,-0.0070343018
1498117111004,-0.02520752,-0.003189087,-0.0078125
1498117111023,-0.01574707,0.0154418945,0.012664795
1498117111043,-0.034072876,0.010559082,0.026397705
1498117111063,-0.030563354,-0.0037994385,0.008682251
1498117111084,-0.030258179,-0.016174316,0.008071899
1498117111103,-0.010406494,0.0015411377,0.014953613
1498117111126,-0.021240234,-0.019226074,0.017242432
1498117111144,-0.003982544,-0.02609253,0.005935669
1498117111163,-0.010101318,0.010864258,-0.02154541
1498117111184,-0.002609253,0.0021514893,-0.044296265
1498117111204,0.009292603,0.001083374,-0.038345337
1498117111225,0.02532959,0.010559082,-0.029037476
1498117111245,0.02166748,0.0043029785,-0.020019531
1498117111265,-0.023376465,1.6784668E-4,-0.027664185
1498117111285,-0.043685913,-4.4250488E-4,-0.020019531
1498117111304,-0.034683228,0.00491333,0.0037994385
1498117111325,0.003189087,0.0016937256,0.0068511963
1498117111345,0.0041046143,0.011932373,-0.0042877197
1498117111365,-0.0018463135,0.0070495605,-0.013305664
1498117111385,-9.3078613E-4,0.0073547363,-0.031936646
1498117111405,-0.019104004,0.016052246,-0.030258179
1498117111426,-0.035598755,0.022003174,-0.0337677
1498117111445,-0.05255127,0.0078125,-0.03147888
1498117111465,-0.01864624,0.0012359619,-0.016357422
1498117111486,0.011138916,0.009033203,-0.014678955
1498117111506,-0.0116119385,0.020629883,-0.009490967
1498117111527,-0.027801514,0.011932373,-0.0027618408
1498117111546,-0.013000488,0.0072021484,4.4250488E-4
1498117111566,-0.003829956,-0.0041046143,0.013885498
1498117111592,-0.01071167,-0.012191772,0.0132751465
1498117111607,-0.003982544,0.014831543,-0.016357422
1498117111628,-0.011917114,0.02154541,-0.0140686035
1498117111648,-0.010848999,-0.012496948,-0.006729126
1498117111667,-0.03147888,0.03086853,-0.032546997
1498117111687,-0.028411865,0.01651001,-0.024597168
1498117111707,0.008850098,-0.008071899,-0.004135132
1498117111729,0.01876831,0.026290894,0.012359619
1498117111748,-0.006881714,0.03147888,0.010665894
1498117111768,-0.02947998,7.7819824E-4,0.0076141357
1498117111788,-0.027801514,-0.036636353,-0.009490967
1498117111808,-0.01727295,4.7302246E-4,-0.010406494
1498117111829,-0.033462524,0.011932373,0.008834839
1498117111849,-0.030395508,-0.010818481,-0.0030670166
1498117111868,-0.010406494,-7.4768066E-4,-0.002456665
1498117111888,-0.0045928955,0.02154541,0.008224487
1498117111909,0.0019683838,-0.010513306,-0.008422852
1498117111930,-0.0062713623,-0.032196045,-0.021697998
1498117111950,-0.027191162,0.008117676,-0.0044403076
1498117111969,-0.050872803,0.0126953125,0.0041046143
1498117111989,-0.060028076,-0.008834839,0.013412476
1498117112009,-0.029174805,-0.029754639,0.0146484375
1498117112031,0.008987427,-0.017242432,0.011886597
1498117112050,0.011444092,-4.4250488E-4,-0.005508423
1498117112070,-0.0074920654,0.0067443848,-0.013916016
1498117112092,-0.024597168,-0.007003784,-0.0073394775
1498117112111,-0.01574707,-0.008071899,-0.0068969727
1498117112131,0.009765625,0.0113220215,-0.016052246
1498117112151,0.0015106201,0.013000488,-0.032852173
1498117112171,-0.013763428,0.0099487305,-0.04736328
1498117112190,-0.017730713,-0.011428833,-0.041397095
1498117112211,-0.019104004,-0.0033416748,-0.031021118
1498117112232,-0.016357422,-0.01020813,-0.026428223
1498117112252,0.0021209717,-0.003189087,-0.016662598
1498117112271,-0.0030670166,0.028274536,9.0026855E-4
1498117112291,-0.013305664,0.0178833,-0.0029144287
1498117112311,-0.009933472,-0.0019683838,-0.013305664
1498117112332,0.009765625,0.008575439,-0.023376465
1498117112352,-0.008712769,0.028121948,-0.022460938
1498117112372,-0.023986816,0.021087646,-0.023223877
1498117112392,-0.025360107,-0.008224487,-0.009490967
1498117112412,-0.019256592,-0.0054779053,-0.004135132
1498117112433,-0.02154541,0.008117676,-0.0033721924
1498117112453,-0.0178833,0.013763428,-0.002456665
1498117112473,-0.032089233,0.010559082,5.950928E-4
1498117112493,-0.028259277,-0.004257202,-0.0053710938
1498117112513,-0.007949829,-2.89917E-4,-0.013000488
1498117112533,0.009292603,0.016967773,-0.013763428
1498117112553,-0.009628296,0.020935059,0.0013580322
1498117112573,-0.0062713623,0.002456665,0.00440979
1498117112593,0.0015106201,0.012542725,-0.010253906
1498117112613,-0.019561768,0.0021514893,-0.0019989014
1498117112634,-0.041244507,0.003692627,-0.011169434
1498117112655,-0.05758667,-0.011123657,-0.012084961
1498117112674,-0.025360107,-0.00730896,0.017242432
1498117112694,-0.0021514893,0.022918701,0.014801025
1498117112714,-4.7302246E-4,0.013763428,-0.0048980713
1498117112735,0.0062408447,0.004135132,-0.019104004
1498117112755,0.01083374,0.0027770996,-0.009033203
1498117112775,-0.012084961,0.012390137,-0.018341064
1498117112795,-0.03161621,0.009643555,-0.020477295
1498117112816,-0.032852173,-0.0012054443,-0.02658081
1498117112836,-0.025054932,-0.012496948,-0.0154418945
1498117112856,-0.011474609,-0.0024261475,-0.010253906
1498117112876,-0.012832642,0.0055236816,-0.0070343018
1498117112896,0.0018157959,0.0070495605,-0.0016937256
1498117112916,0.0065460205,0.006591797,0.0013580322
1498117112937,7.4768066E-4,0.008270264,-0.005508423
1498117112956,0.0019683838,0.013000488,-0.0019989014
1498117112976,-0.005050659,0.008575439,-0.007507324
1498117112996,-0.022003174,-0.0018157959,-0.0073394775
1498117113016,-0.016357422,-0.015701294,-0.019561768
1498117113037,-0.0116119385,0.0044403076,-0.021850586
1498117113057,-0.024291992,0.014831543,-0.0126953125
1498117113078,-0.021240234,-0.008071899,-0.014221191
1498117113097,-0.017425537,-0.008682251,-0.015594482
1498117113117,-0.00932312,-0.0062408447,-0.020935059
1498117113138,-0.022613525,-0.006088257,-0.011627197
1498117113158,-0.02230835,-9.0026855E-4,-0.007659912
1498117113178,-0.01651001,0.0030822754,0.0010528564
1498117113197,-0.016967773,1.5258789E-5,-0.0012359619
1498117113218,-0.024139404,0.0033874512,-0.014678955
1498117113239,-0.017120361,0.001083374,-0.013305664
1498117113259,-0.0044403076,0.026138306,-0.008422852
1498117113279,-0.0033721924,-0.0033416748,-0.0113220215
1498117113300,-0.018035889,-0.012191772,-0.016204834
1498117113319,-0.049179077,0.0018463135,-0.008117676
1498117113339,-0.035446167,0.0018463135,0.008377075
1498117113359,0.0022735596,-0.004714966,0.011749268
1498117113379,0.025024414,0.010406494,-0.011169434
1498117113399,0.018310547,0.018035889,-0.015289307
1498117113420,0.010223389,0.011016846,-0.01940918
1498117113440,0.009902954,0.002456665,-0.019866943
1498117113460,-0.018798828,-0.0019683838,-0.024597168
1498117113480,-0.040481567,-0.006088257,-0.014984131
1498117113500,-0.027496338,-4.4250488E-4,-0.008270264
1498117113520,0.0051727295,-0.0015106201,-0.009643555
1498117113540,0.0062408447,0.0046081543,-0.008422852
1498117113560,-0.01727295,0.0113220215,-0.015136719
1498117113580,-0.023834229,-0.010055542,-0.0035247803
1498117113600,0.011749268,-0.007461548,0.0028839111
1498117113620,0.01876831,-0.0019683838,0.00944519
1498117113642,0.023803711,-0.008377075,-0.0036773682
1498117113661,0.01586914,0.005065918,-0.015136719
1498117113681,0.023956299,-0.0027313232,-0.004135132
1498117113701,0.021362305,0.0018463135,-0.0073394775
1498117113721,0.020751953,-7.4768066E-4,-0.0140686035
1498117113742,0.0034942627,0.024765015,-0.03529358
1498117113762,-0.014831543,0.01361084,-0.021697998
1498117113782,-0.002609253,0.015136719,-0.0099487305
1498117113802,0.005935669,0.007965088,-0.004135132
1498117113822,0.013427734,-0.001663208,-0.0113220215
1498117113843,0.031295776,-0.0037994385,-0.006591797
1498117113863,0.029159546,0.001083374,-0.0058135986
1498117113882,0.007461548,-0.018310547,-0.0072021484
1498117113903,7.4768066E-4,-0.026550293,-0.013763428
1498117113923,0.0079193115,-0.0041046143,-0.019256592
1498117113943,0.0065460205,0.007965088,-0.020629883
1498117113967,0.021972656,-0.019836426,-0.030410767
1498117113983,0.022277832,-0.0135650635,-0.043533325
1498117114003,0.003036499,0.002609253,-0.042312622
1498117114023,-0.0045928955,-0.0037994385,-0.033462524
1498117114044,0.0068511963,-0.010971069,-0.016204834
1498117114064,0.036026,-0.0076141357,-0.0099487305
1498117114084,0.041366577,0.0072021484,-0.0021514893
1498117114104,0.042129517,0.001083374,0.0053253174
1498117114124,0.03694153,-0.0079193115,-0.0072021484
1498117114145,0.009597778,-1.373291E-4,-0.018188477
1498117114165,-0.013000488,-0.008224487,-0.034988403
1498117114184,0.00440979,-0.022583008,-0.034225464
1498117114205,0.04840088,-0.014480591,-0.03147888
1498117114225,0.037857056,-0.00944519,-0.039718628
1498117114246,0.018615723,-0.0131073,-0.03804016
1498117114266,0.010070801,-0.016479492,-0.01940918
1498117114286,0.016021729,-0.012191772,-0.0056762695
1498117114305,0.013580322,-1.373291E-4,2.89917E-4
1498117114325,-7.7819824E-4,0.016967773,-0.009643555
1498117114346,-0.009628296,-0.0015106201,-0.012237549
1498117114366,0.014190674,0.0015411377,-0.017425537
1498117114386,0.027328491,0.01940918,-0.026428223
1498117114406,0.0289917,0.0140686035,-0.028579712
1498117114427,0.030227661,0.005218506,-0.018035889
1498117114447,0.02746582,0.0012359619,-0.029037476
1498117114467,0.016784668,0.012542725,-0.033615112
1498117114487,0.0051727295,0.01361084,-0.028884888
1498117114507,0.0065460205,-0.009140015,-0.021240234
1498117114527,0.014038086,4.7302246E-4,-0.013763428
1498117114548,0.013427734,0.008728027,0.0041046143
1498117114568,0.0012054443,0.010253906,0.0068511963
1498117114593,-0.008865356,-0.009750366,-0.014221191
1498117114608,-0.011917114,-0.0015106201,-0.019866943
1498117114628,0.0065460205,0.007659912,-0.019256592
1498117114649,0.011444092,0.021392822,-0.011474609
1498117114668,0.016479492,0.0073547363,-0.0140686035
1498117114688,-0.011779785,0.0053710938,-0.014526367
1498117114708,-0.034835815,-7.4768066E-4,-0.010559082
1498117114729,-0.022918701,-0.0022735596,-0.010253906
1498117114749,9.0026855E-4,0.012237549,-0.0030670166
1498117114769,0.027938843,0.013763428,-7.7819824E-4
1498117114789,0.027633667,0.013153076,0.0063934326
1498117114809,0.0066986084,-0.0021209717,-0.006729126
1498117114829,-0.026123047,-0.010055542,-0.02017212
1498117114851,-0.04032898,0.0018463135,-0.032699585
1498117114870,-0.057434082,0.019714355,-0.022766113
1498117114891,-0.031921387,-5.950928E-4,-0.012390137
1498117114910,0.0053253174,-0.005935669,-0.027053833
1498117114930,0.008377075,-0.0024261475,-0.02658081
1498117114950,-0.0116119385,0.0059814453,-0.027496338
1498117114970,-0.012084961,-0.0015106201,-0.026885986
1498117114990,-0.007797241,-0.0015106201,-0.009796143
1498117115010,-1.5258789E-5,0.015289307,0.001663208
1498117115031,-0.009628296,0.012237549,-0.0036773682
1498117115051,-0.011306763,-0.0013580322,-0.007507324
1498117115071,0.004562378,-0.011276245,-0.011016846
1498117115094,-0.0013885498,0.01071167,-0.012390137
1498117115112,-0.01864624,0.0030822754,-0.006729126
1498117115131,-0.024749756,-0.0025787354,-0.014831543
1498117115152,-0.02444458,-0.0048675537,-0.033309937
1498117115172,-0.038650513,0.006591797,-0.026885986
1498117115192,-0.031921387,-0.0048675537,-0.014373779
1498117115212,-0.0071868896,-0.0079193115,-0.007659912
1498117115232,-0.014373779,0.012390137,-0.011779785
1498117115253,-0.041549683,0.007965088,-0.013153076
1498117115273,-0.042770386,0.009796143,-0.016967773
1498117115292,-0.040634155,-0.009902954,0.009750366
1498117115313,-0.025817871,0.018035889,0.029907227
1498117115333,-0.02017212,-9.0026855E-4,0.024261475
1498117115353,-0.0062713623,-0.00730896,0.014190674
1498117115374,-0.026275635,0.0053710938,0.0037994385
1498117115393,-0.040481567,-0.010818481,-0.008270264
1498117115413,-0.01574707,0.00491333,-0.012390137
1498117115433,-0.005355835,0.023529053,-0.012084961
1498117115456,-0.017730713,0.032089233,-0.018341064
1498117115475,-0.016204834,0.0068969727,-0.016357422
1498117115494,0.014801025,-0.0025787354,-0.01727295
1498117115514,0.0053253174,0.0140686035,-0.031936646
1498117115535,-0.042770386,0.0072021484,-0.045669556
1498117115558,-0.02947998,-0.02029419,-0.035446167
1498117115575,0.0051727295,-0.018463135,-0.0113220215
1498117115597,-0.0048980713,-0.0050201416,-0.002456665
1498117115616,-0.027648926,-0.010971069,-0.0113220215
1498117115636,-0.040023804,0.0032196045,-0.019866943
1498117115657,-0.013916016,0.0059814453,-0.014373779
1498117115676,0.0022735596,-0.0062408447,-0.0126953125
1498117115696,0.017242432,-0.022125244,-0.027664185
1498117115717,0.029922485,9.3078613E-4,-0.041549683
1498117115737,-0.013916016,0.013916016,-0.043533325
1498117115757,-0.02520752,-0.0065460205,-0.046142578
1498117115777,-0.011474609,-0.0077667236,-0.04032898
1498117115798,-0.0032196045,0.011627197,-0.042617798
1498117115819,-0.020935059,0.020019531,-0.030410767
1498117115839,-0.026123047,-0.010665894,-0.011932373
1498117115860,-0.009017944,-0.0048675537,-0.010406494
1498117115881,-0.006881714,0.0039978027,-0.006729126
1498117115899,0.0050201416,-0.009902954,-0.0113220215
1498117115920,-0.016204834,0.0035247803,-0.016815186
1498117115939,-0.01940918,0.0128479,-0.016967773
1498117115959,-0.024139404,0.014373779,-0.020019531
1498117115978,-0.019714355,-5.950928E-4,-0.0178833
1498117115998,-0.012390137,0.0056762695,-0.009033203
1498117116018,-0.01574707,0.02520752,-0.015899658
1498117116038,-0.041397095,0.015289307,-0.021087646
1498117116059,-0.037734985,0.0018463135,-0.019256592
1498117116078,-0.030395508,-0.0053253174,-0.008575439
1498117116098,-0.034683228,0.0021514893,-0.001083374
1498117116118,-0.040634155,0.0044403076,0.012359619
1498117116138,-0.018188477,0.0154418945,0.019226074
1498117116159,-0.0027618408,-7.4768066E-4,0.010971069
1498117116179,0.025787354,-0.005630493,0.007003784
1498117116199,0.027008057,0.0126953125,-0.008117676
1498117116219,-4.7302246E-4,0.021392822,-0.0073394775
1498117116240,-0.029174805,-0.0010528564,-0.008422852
1498117116261,-0.011306763,6.2561035E-4,-0.0178833
1498117116280,-0.0070343018,-7.4768066E-4,-0.012390137
1498117116300,-0.0045928955,0.007659912,-0.0042877197
1498117116320,-0.033309937,0.014831543,-0.0078125
1498117116341,-0.038650513,3.2043457E-4,-9.3078613E-4
1498117116361,-0.02078247,-0.0051727295,0.0013580322
1498117116384,-0.011779785,0.0029144287,-0.0016937256
1498117116404,-0.008560181,0.014373779,0.005935669
1498117116421,-0.026275635,0.026290894,0.013580322
1498117116441,-0.032699585,0.0099487305,0.010818481
1498117116465,-0.018798828,0.0039978027,0.012054443
1498117116483,0.00440979,-4.4250488E-4,0.0037994385
1498117116502,0.00440979,0.00491333,-0.002456665
1498117116522,-0.00932312,0.0039978027,-0.013763428
1498117116544,-0.027496338,7.7819824E-4,-0.007659912
1498117116563,-0.032546997,-0.0065460205,-0.0058135986
1498117116582,-0.02520752,-0.0065460205,0.004257202
1498117116602,-0.036972046,0.008270264,-0.002609253
1498117116622,-0.04170227,9.3078613E-4,0.007003784
1498117116642,-0.034072876,0.006439209,-0.002456665
1498117116663,-0.02154541,-7.4768066E-4,0.00730896
1498117116682,-0.011779785,0.010559082,-0.001083374
1498117116702,-0.016204834,0.009490967,-0.011932373
1498117116723,-0.0140686035,-0.006088257,-0.026290894
1498117116743,-0.014221191,0.028274536,-0.022766113
1498117116764,-0.026275635,0.01940918,-0.012237549
1498117116784,-0.023834229,0.0027770996,-0.0016937256
1498117116804,-0.033615112,-9.0026855E-4,0.005783081
1498117116823,-0.0476532,0.010101318,0.0021209717
1498117116844,-0.04902649,0.01574707,0.0065460205
1498117116865,-0.021850586,0.008728027,0.0025787354
1498117116884,0.0065460205,0.012390137,0.005935669
1498117116904,0.010070801,0.022613525,-0.005508423
1498117116924,-0.002609253,0.016662598,-0.026428223
1498117116944,-0.026123047,-5.950928E-4,-0.023376465
1498117116965,-0.019104004,0.0058288574,-0.009338379
1498117116985,-0.010406494,0.018035889,-0.0126953125
1498117117005,-0.03727722,0.0056762695,-0.026428223
1498117117025,-0.028717041,-0.014022827,-0.011474609
1498117117045,-0.029327393,0.0019989014,0.0041046143
1498117117066,-0.0388031,0.024154663,0.00440979
1498117117085,-0.030563354,0.016662598,0.0051727295
1498117117105,-0.025360107,-0.0019683838,-0.0015411377
1498117117125,-0.008865356,-0.0041046143,-0.002456665
1498117117146,-0.005050659,-0.0039520264,0.0015106201
1498117117166,-0.032699585,-0.0025787354,0.0066986084
1498117117186,-0.040786743,7.7819824E-4,0.0027313232
1498117117206,-0.026733398,-0.008071899,0.007003784
1498117117226,-0.023223877,-0.019378662,0.0021209717
1498117117246,-0.00642395,-0.02319336,-0.014984131
1498117117267,-4.7302246E-4,-0.00730896,-0.034683228
1498117117287,0.0025787354,-0.007003784,-0.0388031
1498117117307,-0.0019989014,-0.016784668,-0.037124634
1498117117327,-4.7302246E-4,-0.018463135,-0.014526367
1498117117347,2.89917E-4,-0.0024261475,0.017700195
1498117117367,0.012817383,0.0039978027,0.03541565
1498117117389,0.02029419,-0.013717651,0.012191772
1498117117407,0.02029419,-0.010665894,-0.008880615
1498117117427,-0.0048980713,0.0059814453,-0.03453064
1498117117449,-9.3078613E-4,0.007965088,-0.044143677
1498117117469,0.03678894,1.6784668E-4,-0.059417725
1498117117488,0.030075073,0.0068969727,-0.075302124
1498117117508,-0.04307556,0.0072021484,-0.070877075
1498117117528,-0.07789612,0.0070495605,-0.045211792
1498117117549,-0.08935547,0.0128479,-0.01940918
1498117117574,-0.025665283,-0.010513306,0.02670288
1498117117597,0.045028687,-0.0033416748,0.063201904
1498117117609,0.07191467,0.0053710938,0.07954407
1498117117630,0.047164917,0.015899658,0.05419922
1498117117650,2.89917E-4,0.010101318,0.0132751465
1498117117673,-0.027038574,0.011779785,-0.002456665
1498117117689,-0.026733398,0.009185791,-0.0032196045
1498117117710,-0.01071167,0.0046081543,-0.0044403076
1498117117730,-0.010101318,0.010559082,-0.016052246
1498117117750,-0.010238647,0.025985718,-0.0045928955
1498117117771,-0.0074920654,0.005065918,0.014038086
1498117117791,0.005783081,-0.0077667236,0.021972656
1498117117812,-0.0048980713,0.0067443848,0.031585693
1498117117830,-0.009628296,0.011779785,0.041366577
1498117117850,-0.008560181,-0.005783081,0.036026
1498117117872,0.013427734,-0.013412476,0.020141602
1498117117891,0.008377075,-0.0068511963,0.016174316
1498117117911,-0.015899658,0.006591797,0.020446777
1498117117931,-0.022766113,0.00491333,0.019683838
1498117117951,-0.0048980713,-0.014022827,0.016021729
1498117117972,0.023803711,-0.0010528564,0.004562378
1498117117992,0.014801025,0.008422852,-4.7302246E-4
1498117118012,-0.0073394775,0.0053710938,-0.009643555
1498117118034,-0.014984131,-0.010665894,-0.008117676
1498117118061,-0.01361084,3.2043457E-4,0.011276245
1498117118073,-0.024139404,0.0055236816,0.02243042
1498117118097,-0.013305664,-0.011123657,0.021514893
1498117118113,-0.006729126,-0.00944519,0.015563965
1498117118137,-0.01071167,-0.0028839111,-0.0029144287
1498117118153,-0.013458252,6.2561035E-4,-0.006286621
1498117118173,0.012054443,0.0113220215,-0.013763428
1498117118193,0.016784668,-0.004714966,-0.009033203
1498117118213,-0.009628296,-0.004257202,-0.014373779
1498117118233,-0.04612732,-0.012191772,-0.0128479
1498117118253,-0.051940918,-0.0066986084,0.0024261475
1498117118274,-0.011169434,0.0019989014,0.021209717
1498117118294,0.021514893,3.2043457E-4,0.025939941
1498117118314,0.015716553,0.0032196045,0.012969971
1498117118334,0.0027313232,0.005218506,-0.009643555
1498117118354,-0.020935059,-0.008682251,-0.0128479
1498117118374,-0.046432495,0.007659912,-0.012390137
1498117118395,-0.022155762,0.016815186,7.4768066E-4
1498117118414,-0.0023040771,0.007507324,-9.3078613E-4
1498117118434,0.004714966,-0.0063934326,5.950928E-4
1498117118455,-0.016815186,0.0055236816,-0.0072021484
1498117118475,-0.023986816,-0.0050201416,-0.010406494
1498117118495,-0.01574707,0.012237549,-0.009033203
1498117118515,-0.020935059,0.019256592,0.0041046143
1498117118535,-0.027191162,0.021240234,0.0062408447
1498117118555,-0.02658081,0.016967773,0.009902954
1498117118576,-0.0027618408,0.016204834,4.4250488E-4
1498117118601,-0.0042877197,0.023986816,-0.001083374
1498117118616,-0.022460938,0.010864258,-7.7819824E-4
1498117118637,-0.02947998,0.0044403076,-0.0045928955
1498117118657,-0.014221191,0.013763428,-0.0032196045
1498117118678,-0.014831543,0.015136719,-0.0059814453
1498117118700,-0.02520752,0.02230835,0.0024261475
1498117118717,-0.022918701,0.0128479,0.008529663
1498117118740,-0.018341064,0.011169434,0.007461548
1498117118758,-0.022155762,0.02796936,1.373291E-4
1498117118777,-0.038345337,0.026901245,-0.0058135986
1498117118798,-0.0635376,0.007965088,-0.021697998
1498117118820,-0.06965637,0.00491333,-0.03010559
1498117118839,-0.05819702,0.0072021484,-0.020629883
1498117118863,-0.037582397,0.011779785,-0.012237549
1498117118883,-0.03514099,0.018798828,-0.012390137
1498117118901,-0.05819702,0.009490967,-0.0099487305
1498117118921,-0.045059204,-0.008987427,-0.008270264
1498117118942,-0.024139404,-0.0028839111,-0.001083374
1498117118963,-0.021697998,0.019104004,0.00730896
1498117118983,-0.027954102,0.021087646,0.008987427
1498117119003,-0.014984131,0.0047454834,0.022125244
1498117119021,0.0039520264,0.0154418945,0.020446777
1498117119041,-0.02368164,-0.0012054443,0.0034942627
1498117119063,-0.03453064,-0.0037994385,-0.01727295
1498117119084,-0.037734985,0.0032196045,-0.029342651
1498117119128,-0.03514099,0.006286621,-0.034683228
1498117119130,-0.025054932,-0.011276245,-0.042922974
1498117119144,-0.016357422,-0.018920898,-0.048736572
1498117119162,-0.015289307,-0.013412476,-0.06277466
1498117119185,0.008544922,0.016204834,-0.08950806
1498117119205,-0.015899658,0.0140686035,-0.11027527
1498117119224,-0.06384277,-0.02456665,-0.088897705
1498117119243,-0.07194519,-0.048843384,-0.076675415
1498117119263,-0.04246521,0.0043029785,-0.09729004
1498117119284,-0.00932312,0.02720642,-0.13409424
1498117119306,-0.0023040771,-0.034484863,-0.1408081
1498117119325,0.001663208,0.008270264,-0.14448547
1498117119345,-0.03666687,0.021087646,-0.14372253
1498117119364,-0.05239868,0.014984131,-0.1003418
1498117119385,-0.050704956,-0.009140015,-0.05895996
1498117119405,-0.082473755,-0.01234436,-0.034072876
1498117119422,-0.11973572,0.015289307,-0.02658081
1498117119442,-0.12600708,0.03895569,0.007156372
1498117119462,-0.12095642,0.06399536,0.05206299
1498117119484,-0.10722351,0.08584595,0.08152771
1498117119503,-0.12049866,0.12631226,0.094818115
1498117119522,-0.10430908,0.12875366,0.12275696
1498117119547,-0.09439087,0.11378479,0.13513184
1498117119563,-0.09194946,0.10095215,0.16581726
1498117119584,-0.08918762,0.10142517,0.16812134
1498117119604,-0.09454346,0.12860107,0.1736145
1498117119623,-0.1307373,0.12844849,0.19132996
1498117119646,-0.14187622,0.09561157,0.2021637
1498117119664,-0.14294434,0.113479614,0.22813416
1498117119685,-0.11820984,0.14372253,0.2524109
1498117119704,-0.11668396,0.13119507,0.24920654
1498117119724,-0.14692688,0.08706665,0.23835754
1498117119744,-0.15898132,0.04307556,0.2460022
1498117119764,-0.1618805,0.034683228,0.24508667
1498117119784,-0.14707947,0.04017639,0.24676514
1498117119804,-0.14447021,0.091033936,0.26524353
1498117119827,-0.19151306,0.14982605,0.26982117
1498117119845,-0.3408661,0.18052673,0.26921082
1498117119865,-0.4523468,0.10310364,0.24584961
1498117119886,-0.45555115,0.0019989014,0.23576355
1498117119906,-0.40774536,0.01727295,0.19941711
1498117119927,-0.3590393,0.06980896,0.12245178
1498117119949,-0.31077576,0.111343384,0.05618286
1498117119967,-0.25442505,0.12905884,0.03831482
1498117119986,-0.23014832,0.12554932,-0.003829956
1498117120009,-0.18463135,0.063690186,-0.032699585
1498117120027,-0.10583496,-0.04472351,-0.040786743
1498117120047,-0.046432495,-0.1552887,-0.029190063
1498117120069,-0.037734985,-0.17514038,-0.036361694
1498117120089,-0.061553955,-0.14979553,-0.022918701
1498117120120,-0.119277954,-0.15193176,0.013885498
1498117120128,-0.19181824,-0.21057129,0.0410614
1498117120148,-0.18218994,-0.18551636,0.008834839
1498117120168,-0.115615845,-0.15589905,-0.010406494
1498117120190,-0.040481567,-0.14520264,-0.010253906
1498117120208,0.06916809,-0.15849304,-0.0073394775
1498117120230,0.050994873,-0.15696716,0.025177002
1498117120252,0.034957886,-0.20063782,0.09298706
1498117120270,0.16537476,-0.30189514,0.12275696
1498117120290,0.35121155,-0.41412354,0.10305786
1498117120310,0.43338013,-0.5152283,0.09375
1498117120329,0.42512512,-0.52911377,0.11116028
1498117120348,0.33518982,-0.3399048,0.08137512
1498117120369,0.08351135,-0.18185425,0.055267334
1498117120389,-0.08705139,-0.090530396,-0.041549683
1498117120410,-0.2588501,-0.19346619,-0.22938538
1498117120431,-0.2461853,-0.23728943,-0.48043823
1498117120449,-0.24206543,-0.15162659,-0.56993103
1498117120471,-0.29841614,0.013763428,-0.5178528
1498117120491,-0.25564575,0.15287781,-0.43936157
1498117120511,-0.03100586,0.12738037,-0.37797546
1498117120530,0.18354797,0.014221191,-0.33032227
1498117120550,0.26371765,-0.01234436,-0.28207397
1498117120570,0.11558533,0.013000488,-0.20831299
1498117120592,0.035873413,0.09881592,-0.0013885498
1498117120612,0.031143188,0.082473755,0.15696716
1498117120631,0.19194031,-0.02029419,0.1920929
1498117120654,0.29623413,-0.10107422,0.16903687
1498117120675,0.19560242,-0.059692383,0.1933136
1498117120694,0.007156372,0.024154663,0.25561523
1498117120714,-0.002609253,0.070114136,0.23973083
1498117120734,0.12399292,0.027053833,0.17590332
1498117120755,0.17575073,-0.02960205,0.10810852
1498117120776,0.073898315,-0.01586914,0.060760498
1498117120794,-0.011306763,0.04032898,0.0398407
1498117120814,-0.02658081,0.11073303,-0.02230835
1498117120835,-0.077438354,0.14967346,-0.115615845
1498117120857,-0.20877075,0.12677002,-0.14936829
1498117120877,-0.29963684,0.08508301,-0.120651245
1498117120895,-0.25993347,0.06828308,-0.03086853
1498117120918,-0.07469177,0.10890198,0.02960205
1498117120934,0.101379395,0.10798645,0.06350708
1498117120957,0.2166748,0.1687622,0.0728302
1498117120975,0.29640198,0.2622223,0.18385315
1498117120995,0.35443115,0.31170654,0.24203491
1498117121019,0.3787079,0.349411,0.28875732
1498117121036,0.44863892,0.14738464,0.19438171
1498117121054,0.5245514,-0.2337799,0.02319336
1498117121076,0.5249939,-0.47184753,-0.08201599
1498117121108,0.44589233,-0.18276978,-0.08216858
1498117121114,0.2632599,0.20877075,0.076187134
1498117121137,0.0728302,0.105545044,0.24493408
1498117121155,-0.0894928,-0.10580444,0.18675232
1498117121175,-0.07133484,-0.20628357,0.0867157
1498117121195,-0.07850647,-0.22018433,0.06274414
1498117121217,-0.12004089,-0.09603882,0.020446777
1498117121237,-0.25915527,0.09667969,-0.0044403076
1498117121258,-0.43234253,0.28756714,0.02319336
1498117121279,-0.3924713,0.32757568,0.112075806
1498117121300,-0.19136047,0.192276,0.17391968
1498117121318,0.017089844,0.021240234,0.0949707
1498117121338,0.06488037,0.021087646,0.03465271
1498117121358,-0.12019348,0.06124878,0.07847595
1498117121380,-0.25579834,0.043685913,0.091308594
1498117121399,-0.2043457,0.037887573,0.067474365
1498117121419,-0.14875793,0.02078247,0.008987427
1498117121438,-0.05039978,-0.010055542,-0.03239441
1498117121459,0.025939941,-0.047927856,-0.0844574
1498117121480,-0.013137817,-0.10702515,-0.11943054
1498117121500,-0.06843567,-0.20140076,-0.16036987
1498117121520,-0.010101318,-0.2757721,-0.20648193
1498117121539,0.10305786,-0.24217224,-0.22953796
1498117121559,0.13238525,-0.21743774,-0.25686646
1498117121582,0.010070801,-0.29226685,-0.27612305
1498117121620,-0.12339783,-0.3188324,-0.27642822
1498117121620,-0.13272095,-0.34495544,-0.26115417
1498117121638,0.029922485,-0.37670898,-0.22312927
1498117121660,0.19743347,-0.48223877,-0.24328613
1498117121681,0.09161377,-0.4533844,-0.4292755
1498117121700,-0.31169128,-0.28448486,-0.6307068
1498117121720,-0.61909485,-0.104278564,-0.6490326
1498117121741,-0.43981934,0.0113220215,-0.5250397
1498117121761,0.05618286,-0.10336304,-0.4451599
1498117121780,0.4300232,-0.2180481,-0.48043823
1498117121801,0.37825012,-0.1723938,-0.5177002
1498117121823,0.21789551,0.054840088,-0.57740784
1498117121841,-0.1739502,0.20861816,-0.50105286
1498117121862,-0.35751343,0.21273804,-0.38301086
1498117121883,-0.29611206,0.15150452,-0.3394928
1498117121906,-0.18096924,0.101119995,-0.27703857
1498117121920,-0.03666687,0.114852905,-0.113479614
1498117121939,0.036026,0.09866333,0.00440979
1498117121960,0.03968811,0.039871216,0.030517578
1498117121979,-0.08125305,-0.08457947,0.095581055
1498117122000,-0.15577698,-0.12948608,0.16705322
1498117122020,-0.09591675,-0.08213806,0.18231201
1498117122041,-0.042770386,0.04736328,0.21560669
1498117122060,0.009902954,0.11302185,0.22369385
1498117122080,-0.046585083,0.1847992,0.19514465
1498117122101,-0.09439087,0.22251892,0.19560242
1498117122120,-0.050567627,0.22618103,0.27790833
1498117122143,0.091918945,0.27825928,0.34220886
1498117122163,0.18873596,0.35736084,0.32434082
1498117122181,0.13650513,0.426239,0.2769928
1498117122203,0.046554565,0.4682312,0.2585144
1498117122225,0.04182434,0.5138855,0.25561523
1498117122243,0.09817505,0.6528473,0.22338867
1498117122265,0.2731781,0.54107666,0.15010071
1498117122287,0.41184998,0.14173889,0.06289673
1498117122304,0.36724854,-0.056793213,0.010665894
1498117122324,0.20141602,0.18388367,0.09024048
1498117122345,-0.013763428,0.38974,0.23728943
1498117122368,-0.04673767,0.17242432,0.33563232
1498117122387,-0.035598755,-0.19194031,0.2954712
1498117122406,-0.0042877197,-0.42466736,0.20721436
1498117122440,-0.08888245,-0.440094,0.18919373
1498117122443,-0.19532776,-0.24920654,0.11543274
1498117122464,-0.3947754,0.03895569,-0.019866943
1498117122484,-0.40927124,0.16281128,-0.0806427
1498117122507,-0.2646637,0.0814209,-0.08003235
1498117122527,-0.06201172,-0.0716095,-0.11180115
1498117122546,-0.029174805,-0.14230347,-0.08506775
1498117122567,-0.14431763,-0.064575195,0.005630493
1498117122586,-0.09378052,-0.019073486,0.010818481
1498117122621,0.03465271,-0.11756897,-0.02017212
1498117122625,0.061523438,-0.18414307,-0.032852173
1498117122645,0.06488037,-0.2287445,-0.055908203
1498117122667,0.039993286,-0.09741211,-0.12432861
1498117122685,-0.042922974,-0.06442261,-0.15333557
1498117122706,-0.12187195,-0.066711426,-0.078048706
1498117122726,-0.055755615,-0.054489136,-0.017425537
1498117122747,0.08520508,-0.03617859,-0.03300476
1498117122766,0.18156433,-0.100616455,-0.058502197
1498117122787,0.19865417,-0.20584106,-0.03742981
1498117122809,0.16293335,-0.25881958,0.0050201416
1498117122827,0.11024475,-0.28250122,0.04548645
1498117122846,0.055725098,-0.2484436,0.08076477
1498117122866,-0.009017944,-0.10870361,0.024261475
1498117122886,0.19239807,-0.22476196,-0.031936646
1498117122907,0.34831238,-0.33135986,-0.1934967
1498117122927,-0.02734375,-0.038467407,-0.4682312
1498117122947,-0.6542206,0.22480774,-0.6160431
1498117122967,-0.79196167,0.19747925,-0.4981537
1498117122987,-0.3959961,0.006591797,-0.35385132
1498117123007,0.16415405,-0.34953308,-0.39675903
1498117123027,0.4081726,-0.49705505,-0.51174927
1498117123048,0.34754944,-0.38923645,-0.54763794
1498117123068,-0.022766113,-0.0021209717,-0.5421448
1498117123088,-0.29382324,0.2290802,-0.3849945
1498117123109,-0.27824402,0.21350098,-0.1269226
1498117123129,0.05831909,0.02720642,0.016021729
1498117123149,0.19178772,-0.046554565,0.05709839
1498117123169,0.1355896,-0.037246704,0.090545654
1498117123189,0.1058197,-0.07939148,0.18904114
1498117123210,0.120010376,-0.15681458,0.31059265
1498117123229,0.05923462,-0.09007263,0.35212708
1498117123249,0.021972656,-0.055725098,0.33839417
1498117123270,0.023345947,-0.023803711,0.30677795
1498117123297,0.07069397,0.03514099,0.26646423
1498117123314,0.14247131,0.19303894,0.2218628
1498117123333,0.18553162,0.26054382,0.140625
1498117123352,0.19973755,0.24160767,0.08076477
1498117123374,0.18078613,0.16983032,0.040756226
1498117123393,0.19926453,0.123413086,0.050842285
1498117123413,0.3075409,0.090270996,0.0740509
1498117123434,0.40971375,0.040023804,0.031448364
1498117123453,0.32556152,0.018493652,-0.0033721924
1498117123471,0.21438599,-0.0077667236,-0.05407715
1498117123492,-0.06552124,0.10752869,-0.07331848
1498117123512,-0.14707947,0.3801117,-0.03666687
1498117123532,-0.04689026,0.3222351,0.06518555
1498117123552,-0.094696045,0.116378784,0.057556152
1498117123571,-0.19822693,0.057128906,0.06625366
1498117123593,-0.06765747,0.030258179,0.19697571
1498117123612,0.22325134,-0.06625366,0.30540466
1498117123632,0.2788391,-0.1933136,0.33029175
1498117123652,0.0728302,-0.23805237,0.3333435
1498117123672,-0.01222229,-0.23088074,0.32281494
1498117123692,-0.07545471,-0.13574219,0.25546265
1498117123713,-0.11332703,-0.044570923,0.14413452
1498117123733,-0.18952942,0.06338501,0.09680176
1498117123753,-0.2932129,0.16937256,0.18032837
1498117123774,-0.24588013,0.18708801,0.29440308
1498117123793,-0.10997009,0.14952087,0.24493408
1498117123816,0.015411377,0.07331848,0.16200256
1498117123834,0.04197693,0.036361694,0.15574646
1498117123853,-0.02078247,0.03147888,0.18521118
1498117123875,-0.067352295,0.0597229,0.18048096
1498117123896,-0.15989685,0.14616394,0.08717346
1498117123917,-0.13562012,0.076828,0.029144287
1498117123937,-0.09500122,-0.013412476,0.03816223
1498117123956,-0.06674194,-0.09466553,0.051757813
1498117123978,0.036331177,-0.2230835,0.05053711
1498117123997,0.1673584,-0.27149963,9.0026855E-4
1498117124018,0.21011353,-0.26722717,-0.09301758
1498117124040,0.16384888,-0.3047943,-0.10385132
1498117124057,0.06611633,-0.34358215,-0.11286926
1498117124078,0.039230347,-0.30677795,-0.14616394
1498117124130,0.028076172,-0.23423767,-0.19700623
1498117124131,0.08030701,-0.28585815,-0.28253174
1498117124137,-0.14355469,-0.39871216,-0.51342773
1498117124158,-0.6873627,-0.18444824,-0.7113342
1498117124178,-0.9790344,0.028884888,-0.6720886
1498117124197,-0.5409088,0.039413452,-0.52793884
1498117124218,0.17834473,-0.14352417,-0.38041687
1498117124239,0.37167358,-0.28952026,-0.29978943
1498117124257,0.19361877,-0.23484802,-0.34376526
1498117124278,-0.114852905,-0.15437317,-0.3776703
1498117124299,-0.22419739,0.046142578,-0.3946228
1498117124320,-0.20968628,0.17623901,-0.24862671
1498117124338,0.0022735596,0.23320007,-0.04185486
1498117124359,0.12199402,0.2266388,0.11177063
1498117124378,0.084121704,0.19595337,0.16842651
1498117124399,0.069625854,0.14387512,0.19850159
1498117124420,0.08381653,0.07926941,0.24049377
1498117124439,0.099243164,0.025680542,0.24783325
1498117124460,0.10473633,0.090270996,0.17514038
1498117124479,0.0012054443,0.11103821,0.13787842
1498117124499,-0.04536438,0.09851074,0.108551025
1498117124522,-0.08079529,0.09118652,0.09039307
1498117124540,-0.025665283,0.11149597,0.09375
1498117124560,0.031600952,0.15821838,0.13375854
1498117124580,0.042434692,0.25901794,0.14537048
1498117124618,0.048858643,0.24969482,0.1184845
1498117124619,0.08459473,0.20343018,0.11955261
1498117124649,0.07069397,0.20358276,0.16445923
1498117124659,0.0619812,0.26878357,0.20584106
1498117124679,0.12994385,0.34254456,0.2288971
1498117124699,0.2325592,0.39813232,0.29058838
1498117124720,0.4280243,0.17272949,0.261734
1498117124739,0.3918457,0.07728577,-0.057739258
1498117124759,0.03388977,0.12783813,-0.31521606
1498117124782,-0.4192047,0.18586731,-0.17425537
1498117124800,-0.45065308,0.16479492,0.1603241
1498117124826,-0.07759094,0.018951416,0.3431244
1498117124842,0.053741455,-0.24446106,0.35639954
1498117124863,-0.07423401,-0.371521,0.3284607
1498117124886,-0.23472595,-0.3454132,0.31852722
1498117124903,-0.302536,-0.1565094,0.3360901
1498117124925,-0.37124634,0.03437805,0.3652649
1498117124944,-0.28527832,0.13394165,0.32373047
1498117124965,-0.15760803,0.10081482,0.31777954
1498117124984,-0.028411865,0.10600281,0.3188324
1498117125004,-0.016204834,0.052093506,0.31089783
1498117125026,-0.020629883,0.0032196045,0.24768066
1498117125044,-0.044448853,-0.01234436,0.090545654
1498117125065,-0.027648926,-0.105651855,-0.024597168
1498117125085,0.01876831,-0.118637085,-0.05682373
1498117125121,0.025177002,-0.09664917,-0.06414795
1498117125123,0.017089844,-0.053878784,-0.08584595
1498117125144,-0.01864624,-0.0879364,-0.1637268
1498117125165,0.025024414,-0.19087219,-0.21334839
1498117125185,0.1281128,-0.30967712,-0.17852783
1498117125203,0.21118164,-0.3005066,-0.13623047
1498117125226,0.17681885,-0.25637817,-0.19136047
1498117125244,0.08856201,-0.2498169,-0.30223083
1498117125264,0.0050201416,-0.2953186,-0.34910583
1498117125284,-0.035446167,-0.29577637,-0.33644104
1498117125303,-0.04399109,-0.25805664,-0.31781006
1498117125324,0.018615723,-0.34129333,-0.37200928
1498117125345,0.16308594,-0.55859375,-0.52565
1498117125364,0.1108551,-0.58592224,-0.72462463
1498117125384,-0.43325806,-0.08457947,-0.7595978
1498117125404,-0.81915283,0.29460144,-0.5166321
1498117125424,-0.42240906,0.24130249,-0.28024292
1498117125444,0.10658264,-0.119400024,-0.2264862
1498117125467,0.3209839,-0.3017273,-0.25794983
1498117125484,0.15162659,-0.060760498,-0.23426819
1498117125505,-0.29885864,0.091033936,-0.21166992
1498117125526,-0.46318054,0.36805725,-0.16357422
1498117125546,-0.4931183,0.47662354,-0.049804688
1498117125566,-0.3197937,0.3307953,0.10610962
1498117125585,-0.016815186,0.10676575,0.17300415
1498117125612,0.18095398,0.025375366,0.13742065
1498117125625,0.120773315,0.0814209,0.11772156
1498117125646,-0.022766113,0.119903564,0.16246033
1498117125665,-0.04978943,0.053771973,0.23454285
1498117125685,0.046722412,0.007659912,0.2498169
1498117125705,0.10871887,-0.0024261475,0.22904968
1498117125727,0.11558533,0.08079529,0.15727234
1498117125747,0.10612488,0.25886536,0.12565613
1498117125769,0.053131104,0.32513428,0.13269043
1498117125789,5.950928E-4,0.2119751,0.14108276
1498117125809,-0.014373779,0.07286072,0.14245605
1498117125831,0.013580322,-0.008987427,0.14352417
1498117125851,0.120162964,-0.02029419,0.12750244
1498117125870,0.21331787,0.083862305,0.13619995
1498117125888,0.09817505,0.28970337,0.21652222
1498117125909,-0.002456665,0.41859436,0.27119446
1498117125931,0.017242432,0.4575348,0.34129333
1498117125952,0.17346191,0.23947144,0.20048523
1498117125972,0.11405945,0.10050964,-0.2055664
1498117125990,-0.0021514893,0.006591797,-0.4292755
1498117126009,0.11222839,-0.039535522,-0.30802917
1498117126028,0.4361267,-0.066101074,-0.10920715
1498117126049,0.4546051,-0.121536255,-0.002609253
1498117126069,0.096954346,-0.266922,0.09222412
1498117126089,-0.2367096,-0.3322754,0.17788696
1498117126116,-0.35934448,-0.2548523,0.18292236
1498117126129,-0.39569092,-0.026397705,0.07740784
1498117126149,-0.42713928,0.113479614,-0.041549683
1498117126169,-0.41477966,0.1872406,-0.05041504
1498117126189,-0.30818176,0.20465088,0.0728302
1498117126214,-0.05758667,0.11042786,0.20368958
1498117126233,0.19087219,0.06324768,0.22660828
1498117126250,0.24920654,0.027053833,0.1749878
1498117126273,0.143219,-0.032196045,0.086868286
1498117126295,0.02532959,-0.11022949,0.003189087
1498117126310,-0.06689453,-0.099243164,-0.0154418945
1498117126334,-0.11286926,-0.018005371,-0.06889343
1498117126351,-0.11592102,0.008270264,-0.09988403
1498117126376,-0.03605652,-0.1317749,-0.096832275
1498117126393,0.05709839,-0.21102905,-0.10707092
1498117126417,0.099853516,-0.24645996,-0.114852905
1498117126432,0.0949707,-0.23149109,-0.108291626
1498117126452,0.06581116,-0.14031982,-0.09240723
1498117126475,0.022735596,-0.09741211,-0.055603027
1498117126496,-0.0116119385,-0.19148254,0.007461548
1498117126515,0.027633667,-0.2928772,0.030517578
1498117126533,0.20431519,-0.26478577,0.02532959
1498117126555,0.29074097,-0.21133423,0.014190674
1498117126574,0.33166504,-0.2852478,-0.0035247803
1498117126593,0.041366577,-0.16766357,-0.2107544
1498117126614,-0.47265625,0.10707092,-0.45707703
1498117126635,-0.6542206,0.1586914,-0.48747253
1498117126656,-0.25411987,-0.02670288,-0.4219513
1498117126677,0.24142456,-0.2536316,-0.38331604
1498117126697,0.39260864,-0.2854004,-0.3260498
1498117126717,0.20095825,-0.143219,-0.31750488
1498117126738,-0.18310547,-0.021209717,-0.30497742
1498117126759,-0.29489136,0.23182678,-0.25442505
1498117126778,-0.3127594,0.27841187,-0.11302185
1498117126796,-0.11958313,0.14585876,0.06655884
1498117126818,0.10597229,0.093170166,0.13970947
1498117126842,0.24707031,0.06904602,0.15956116
1498117126857,0.25012207,0.070877075,0.15666199
1498117126881,0.15696716,0.04949951,0.17269897
1498117126897,0.06564331,0.017425537,0.20355225
1498117126919,-0.029937744,-0.045944214,0.2192688
1498117126939,-0.11439514,-0.03112793,0.23316956
1498117126960,-0.15074158,0.07728577,0.20751953
1498117126979,-0.19578552,0.19747925,0.15757751
1498117126998,-0.24725342,0.22190857,0.14154053
1498117127017,-0.20419312,0.192276,0.19194031
1498117127038,-0.012527466,0.1737976,0.27851868
1498117127056,0.2421875,0.23136902,0.30220032
1498117127076,0.31440735,0.22892761,0.25836182
1498117127096,0.20950317,0.21121216,0.1659851
1498117127119,0.12826538,0.23487854,0.12138367
1498117127138,0.11375427,0.27825928,0.13574219
1498117127160,0.13696289,0.32666016,0.19697571
1498117127180,0.2605133,0.23518372,0.2629547
1498117127200,0.2484436,0.08584595,0.22569275
1498117127219,0.047027588,0.20266724,0.08091736
1498117127240,-0.22128296,0.36880493,0.06350708
1498117127262,-0.20770264,0.32818604,0.22338867
1498117127282,0.11054993,0.052703857,0.33854675
1498117127301,0.24874878,-0.17041016,0.33717346
1498117127320,0.07710266,-0.23042297,0.28707886
1498117127342,-0.15196228,-0.2059784,0.2363739
1498117127362,-0.22389221,-0.03387451,0.10595703
1498117127382,-0.35629272,0.23931885,-0.025680542
1498117127401,-0.49632263,0.34803772,-0.016967773
1498117127422,-0.47769165,0.23504639,0.060760498
1498117127441,-0.28038025,0.08416748,0.068237305
1498117127462,-0.10202026,0.029342651,-0.008117676
1498117127481,-0.025054932,-0.03678894,-0.049041748
1498117127499,-9.3078613E-4,-0.1259613,-0.03010559
1498117127519,0.015716553,-0.10687256,-0.013763428
1498117127540,-0.048568726,-0.07296753,-0.039260864
1498117127561,-0.052703857,-0.04319763,-0.065979004
1498117127580,0.013580322,-0.053878784,-0.14433289
1498117127641,0.07054138,-0.09649658,-0.18800354
1498117127642,0.024108887,-0.1502533,-0.20404053
1498117127643,-0.01940918,-0.20048523,-0.2055664
1498117127663,0.017547607,-0.24110413,-0.18449402
1498117127684,0.052978516,-0.24798584,-0.12722778
1498117127704,0.067337036,-0.25393677,-0.09454346
1498117127723,0.032974243,-0.30081177,-0.11729431
1498117127744,-0.025512695,-0.37609863,-0.10752869
1498117127763,-0.022155762,-0.38832092,-0.089660645
1498117127781,0.027633667,-0.31181335,-0.08201599
1498117127800,0.1933136,-0.32235718,-0.10324097
1498117127820,0.13406372,-0.4290924,-0.24908447
1498117127841,-0.26527405,-0.30952454,-0.49861145
1498117127861,-0.76509094,-0.040756226,-0.57069397
1498117127882,-0.7690582,0.006591797,-0.35629272
1498117127901,-0.2672577,-0.12245178,-0.15501404
1498117127921,0.18522644,-0.3480072,-0.058807373
1498117127942,0.384964,-0.4107666,-0.13043213
1498117127962,0.20309448,-0.2852478,-0.21151733
1498117127981,0.01739502,0.04109192,-0.27947998
1498117128007,-0.28253174,0.21824646,-0.2202301
1498117128025,-0.3459015,0.29092407,-0.08140564
1498117128043,-0.263443,0.22007751,0.016937256
1498117128067,-0.1359253,0.059570313,0.0041046143
1498117128083,0.0033416748,0.023834229,0.0062408447
1498117128105,0.094055176,0.15409851,0.0657959
1498117128124,0.08947754,0.17074585,0.10749817
1498117128144,0.037246704,0.06919861,0.09390259
1498117128166,-4.7302246E-4,0.04093933,0.08824158
1498117128184,-0.003829956,0.06124878,0.096191406
1498117128207,-0.0029144287,0.1751709,0.077560425
1498117128227,-0.0029144287,0.30467224,0.0077667236
1498117128248,0.03251648,0.27397156,-0.03819275
1498117128264,0.044570923,0.18434143,-0.006286621
1498117128284,0.083969116,0.1771698,0.040756226
1498117128305,0.11329651,0.2107544,0.05709839
1498117128325,0.12138367,0.23718262,0.07496643
1498117128346,0.10153198,0.24084473,0.07725525
1498117128365,0.09390259,0.25642395,0.06304932
1498117128386,0.10290527,0.30726624,0.021209717
1498117128405,0.21179199,0.19059753,0.031280518
1498117128425,0.33839417,-0.034347534,0.077560425
1498117128446,0.23469543,-0.004257202,0.012969971
1498117128466,0.0033416748,0.14875793,-0.02796936
1498117128486,-0.053009033,0.1701355,0.074661255
1498117128506,0.12046814,0.01864624,0.21850586
1498117128526,0.28234863,-0.14611816,0.29013062
1498117128547,0.21652222,-0.20262146,0.29760742
1498117128567,0.06060791,-0.22003174,0.30525208
1498117128587,0.019836426,-0.23042297,0.31578064
1498117128607,-0.027954102,-0.17636108,0.26417542
1498117128627,-0.09088135,-0.043655396,0.15132141
1498117128647,-0.19288635,0.11027527,0.084732056
1498117128668,-0.2930603,0.18540955,0.12184143
1498117128688,-0.27030945,0.12310791,0.1907196
1498117128709,-0.15135193,0.041397095,0.18093872
1498117128729,-0.0045928955,-0.06518555,0.10948181
1498117128752,0.07695007,-0.07128906,0.04182434
1498117128773,-0.02230835,-0.011123657,-1.6784668E-4
1498117128788,-0.1446228,0.009796143,-0.035751343
1498117128808,-0.16401672,0.019714355,-0.080337524
1498117128829,-0.11714172,-0.06854248,-0.058654785
1498117128849,-0.026275635,-0.15162659,-0.037582397
1498117128869,7.4768066E-4,-0.23851013,-0.0388031
1498117128889,0.056793213,-0.27149963,-0.06492615
1498117128909,0.16751099,-0.17712402,-0.09164429
1498117128929,0.13574219,-0.048080444,-0.06690979
1498117128950,0.053131104,-0.0076141357,-0.07209778
1498117128969,-0.035598755,-0.12672424,-0.11668396
1498117128989,-0.07040405,-0.20858765,-0.13272095
1498117129011,-0.0488739,-0.3125763,-0.11424255
1498117129030,0.040603638,-0.23179626,-0.047668457
1498117129050,0.2142334,-0.22506714,0.0033416748
1498117129071,0.26142883,-0.22003174,-0.073776245
1498117129090,-0.013137817,-0.15986633,-0.36605835
1498117129113,-0.4599762,0.0059814453,-0.6081085
1498117129130,-0.641098,0.002456665,-0.6009369
1498117129152,-0.33047485,-0.096343994,-0.39416504
1498117129174,0.16583252,-0.22584534,-0.16738892
1498117129190,0.4671173,-0.24201965,-0.10324097
1498117129211,0.44482422,-0.18170166,-0.07545471
1498117129231,0.19468689,-0.03755188,-0.13150024
1498117129253,-0.07896423,0.039718628,-0.15028381
1498117129272,-0.18418884,0.02217102,-0.1308899
1498117129295,-0.14768982,0.0099487305,-0.060638428
1498117129312,-0.012084961,0.029953003,0.0079193115
1498117129332,0.022888184,0.11531067,0.043807983
1498117129352,-0.03590393,0.17059326,0.06655884
1498117129372,-0.037887573,0.15913391,0.12336731
1498117129392,-0.022460938,0.15821838,0.15834045
1498117129416,-0.048568726,0.18235779,0.19514465
1498117129432,-0.111953735,0.19212341,0.18965149
1498117129453,-0.1383667,0.20449829,0.15711975
1498117129473,-0.13043213,0.22709656,0.12397766
1498117129496,-0.11714172,0.2487793,0.1526947
1498117129513,-0.09927368,0.2683258,0.1907196
1498117129533,4.4250488E-4,0.19700623,0.21377563
1498117129554,0.13375854,0.06980896,0.21484375
1498117129574,0.15452576,0.028427124,0.19483948
1498117129594,0.0716095,0.032089233,0.17559814
1498117129617,0.020904541,0.05407715,0.15971375
1498117129635,0.0062408447,0.18571472,0.13085938
1498117129654,0.08198547,0.32284546,0.18307495
1498117129677,0.20477295,0.19425964,0.26539612
1498117129695,0.30708313,-0.024108887,0.24615479
1498117129715,0.17132568,-0.08213806,0.138031
1498117129734,-0.07270813,0.07865906,0.0879364
1498117129755,-0.19868469,0.29231262,0.21820068
1498117129775,0.1844635,0.18586731,0.39305115
1498117129795,0.5162964,0.03514099,0.44177246
1498117129818,0.52989197,-0.22003174,0.4217682
1498117129838,0.33473206,-0.32937622,0.37916565
1498117129856,0.057556152,-0.2510376,0.3690796
1498117129879,-0.1651001,-0.09725952,0.29455566
1498117129896,-0.28833008,0.09072876,0.16337585
1498117129916,-0.31001282,0.15318298,0.11878967
1498117129936,-0.2037201,0.12265015,0.13131714
1498117129957,-0.18218994,0.14768982,0.15345764
1498117129978,-0.18249512,0.15455627,0.1526947
1498117129996,-0.06765747,0.08277893,0.11817932
1498117130020,0.046554565,0.04017639,0.09313965
1498117130037,0.06977844,0.008575439,0.0410614
1498117130057,0.036026,0.09408569,-0.042160034
1498117130077,-0.05529785,0.14189148,-0.14065552
1498117130098,-0.07896423,0.08569336,-0.22801208
1498117130117,-0.06843567,-0.0041046143,-0.276886
1498117130137,-0.011169434,-0.12382507,-0.25642395
1498117130159,0.11695862,-0.22706604,-0.24084473
1498117130179,0.21270752,-0.28936768,-0.30482483
1498117130197,0.13726807,-0.27867126,-0.4192047
1498117130217,-0.0036773682,-0.25271606,-0.45967102
1498117130237,-0.07286072,-0.21102905,-0.47036743
1498117130258,-0.09866333,-0.1627655,-0.40011597
1498117130278,0.024414063,-0.107177734,-0.3408661
1498117130298,0.24310303,-0.25408936,-0.34620667
1498117130318,0.23928833,-0.44818115,-0.3813324
1498117130339,-0.09225464,-0.36694336,-0.4094391
1498117130359,-0.5460968,-0.0657959,-0.4105072
1498117130381,-0.58244324,0.04307556,-0.37065125
1498117130399,-0.15730286,-0.12428284,-0.34254456
1498117130419,0.20629883,-0.22384644,-0.3382721
1498117130439,0.25546265,-0.30937195,-0.31506348
1498117130459,0.06581116,-0.22462463,-0.2987213
1498117130480,-0.31596375,-0.075424194,-0.310318
1498117130500,-0.35995483,0.014831543,-0.31092834
1498117130520,-0.19334412,0.006286621,-0.25794983
1498117130540,-0.11256409,0.008575439,-0.17440796
1498117130561,-0.05117798,0.04522705,-0.049346924
1498117130581,-0.0033721924,0.096069336,0.07237244
1498117130600,0.05709839,0.1357727,0.1368103
1498117130620,0.099853516,0.10935974,0.16307068
1498117130641,0.120773315,0.063690186,0.1641388
1498117130661,0.06716919,0.098968506,0.10626221
1498117130682,-0.04093933,0.0953064,0.07267761
1498117130702,-0.16448975,0.19778442,0.07496643
1498117130722,-0.22953796,0.22709656,0.09176636
1498117130742,-0.20526123,0.21334839,0.09436035
1498117130762,-0.22280884,0.18907166,0.11192322
1498117130782,-0.11531067,0.21350098,0.1673584
1498117130801,0.04840088,0.12310791,0.22447205
1498117130822,0.07939148,0.090270996,0.23225403
1498117130842,0.02166748,0.11515808,0.19194031
1498117130862,-0.11454773,0.17900085,0.1603241
1498117130882,-0.15119934,0.31750488,0.15284729
1498117130902,-0.011474609,0.47998047,0.20980835
1498117130922,0.1856842,0.48731995,0.34846497
1498117130942,0.32434082,0.29811096,0.3270874
1498117130963,0.27548218,0.16967773,0.07145691
1498117130983,-0.033920288,0.11180115,-0.0756073
1498117131003,-0.26664734,0.115615845,0.05189514
1498117131023,-0.12614441,0.096069336,0.31272888
1498117131043,0.05999756,-0.08091736,0.4119873
1498117131064,0.35565186,-0.25195313,0.43475342
1498117131085,0.34205627,-0.3025055,0.35289
1498117131106,0.13604736,-0.28616333,0.30326843
1498117131124,-0.10920715,-0.09114075,0.20523071
1498117131145,-0.27534485,0.10997009,0.0987854
1498117131168,-0.29229736,0.18006897,0.06304932
1498117131188,-0.1934967,0.17456055,0.04701233
1498117131204,-0.15470886,0.13241577,0.03694153
1498117131228,-0.12232971,0.049804688,0.012359619
1498117131245,-0.0693512,0.019714355,-0.008728027
1498117131269,-0.051940918,-0.018463135,-0.052093506
1498117131289,-0.05039978,-0.07817078,-0.049957275
1498117131308,-0.09851074,-0.08641052,-0.05239868
1498117131328,-0.11088562,-0.06716919,-0.11012268
1498117131350,-0.09484863,-0.12825012,-0.14509583
1498117131368,-0.08583069,-0.19483948,-0.14753723
1498117131387,-0.10858154,-0.13894653,-0.12019348
1498117131407,-0.008560181,-0.08946228,-0.06645203
1498117131426,0.18934631,-0.048843384,-0.07194519
1498117131447,0.25868225,-0.030822754,-0.099731445
1498117131467,0.24447632,-0.060302734,-0.1566925
1498117131487,0.2397461,-0.19819641,-0.22801208
1498117131507,0.25271606,-0.28738403,-0.28482056
1498117131528,0.18873596,-0.16230774,-0.32070923
1498117131547,0.21774292,-0.10839844,-0.34300232
1498117131567,0.322052,-0.27668762,-0.40057373
1498117131588,0.10948181,-0.29257202,-0.6256714
1498117131607,-0.49754333,0.010559082,-0.6797333
1498117131631,-0.73347473,0.03742981,-0.34361267
1498117131647,-0.30802917,-0.03404236,-0.15791321
1498117131668,-0.0056610107,-0.1995697,-0.08935547
1498117131695,0.41978455,-0.33946228,-0.21472168
1498117131712,0.41596985,-0.2572937,-0.31781006
1498117131729,0.02746582,-0.0012054443,-0.37583923
1498117131752,-0.38026428,0.16616821,-0.3614807
1498117131769,-0.4256134,0.2671051,-0.2584076
1498117131793,-0.2696991,0.23243713,-0.108291626
1498117131810,-0.111343384,0.13607788,0.05206299
1498117131833,-0.012084961,0.08874512,0.16705322
1498117131851,0.061065674,0.080337524,0.20675659
1498117131876,0.081832886,0.078048706,0.27851868
1498117131894,0.09283447,0.0178833,0.33517456
1498117131912,0.076034546,0.16220093,0.30464172
1498117131931,-0.08308411,0.22496033,0.27241516
1498117131955,-0.17532349,0.1973114,0.27027893
1498117131975,-0.17654419,0.2107544,0.26493835
1498117131995,-0.1250763,0.16906738,0.2667694
1498117132015,-0.08338928,0.17945862,0.27287292
1498117132035,-0.086746216,0.2544403,0.25271606
1498117132053,-0.05987549,0.2425232,0.2250824
1498117132075,-0.005050659,0.11302185,0.20492554
1498117132098,0.11024475,0.05102539,0.1824646
1498117132128,0.10443115,0.048431396,0.16429138
1498117132135,-4.7302246E-4,0.09408569,0.070236206
1498117132152,-0.09057617,0.2157898,-0.027053833
1498117132175,-0.019256592,0.16464233,0.018920898
1498117132196,0.14123535,-0.08732605,0.07572937
1498117132217,0.15284729,-0.2059784,-0.081710815
1498117132235,-0.1492157,-0.13391113,-0.2988739
1498117132253,-0.43707275,0.03239441,-0.26741028
1498117132274,-0.22892761,0.19639587,-0.124176025
1498117132293,0.06259155,0.28649902,0.24768066
1498117132313,0.46055603,0.07469177,0.4571991
1498117132336,0.5173645,-0.17819214,0.37060547
1498117132354,0.45689392,-0.3687744,0.2301178
1498117132377,0.18858337,-0.3385315,0.15238953
1498117132394,-0.08705139,-0.1552887,0.023803711
1498117132418,-0.3338318,0.018341064,-0.1415863
1498117132433,-0.49525452,0.17105103,-0.23304749
1498117132454,-0.49739075,0.2805481,-0.19532776
1498117132477,-0.39491272,0.2869568,-0.15699768
1498117132494,-0.3199463,0.25213623,-0.090423584
1498117132514,-0.14768982,0.122802734,-0.080337524
1498117132534,0.025939941,0.029190063,-0.0844574
1498117132555,0.048858643,0.006591797,-0.08201599
1498117132577,-0.019866943,0.0655365,-0.079574585
1498117132599,-0.1359253,0.03453064,-0.08859253
1498117132633,-0.13470459,-0.0925293,-0.100494385
1498117132636,-0.013000488,-0.16062927,-0.11439514
1498117132655,0.02746582,-0.11817932,-0.11256409
1498117132675,0.041366577,-0.09037781,-0.12156677
1498117132697,0.082595825,-0.073135376,-0.13745117
1498117132717,0.22218323,-0.122299194,-0.16142273
1498117132740,0.23944092,-0.17834473,-0.21029663
1498117132757,0.15574646,-0.20445251,-0.25932312
1498117132777,0.069625854,-0.16505432,-0.31811523
1498117132797,0.031906128,-0.16459656,-0.4242401
1498117132817,-0.019104004,-0.1665802,-0.58154297
1498117132836,-0.053771973,-0.198349,-0.6595764
1498117132857,-0.11958313,-0.26753235,-0.6713257
1498117132876,-0.22434998,-0.28952026,-0.6217041
1498117132897,-0.34391785,-0.061828613,-0.43051147
1498117132917,-0.6736145,0.2214508,-0.31826782
1498117132937,-0.5978699,0.0818634,-0.23747253
1498117132960,-0.018341064,-0.1444397,-0.13867188
1498117132978,0.4477234,-0.1882782,-0.05834961
1498117132997,0.42100525,-0.15742493,-0.039108276
1498117133021,0.089019775,0.02017212,-0.15531921
1498117133038,-0.27137756,0.17028809,-0.28573608
1498117133058,-0.362854,0.18891907,-0.2606964
1498117133078,-0.23884583,0.17059326,-0.20129395
1498117133100,-0.17623901,0.13775635,-0.06414795
1498117133129,-0.08905029,0.090423584,0.09893799
1498117133139,-0.038650513,0.025680542,0.2730255
1498117133161,0.02609253,0.017730713,0.33029175
1498117133179,0.070388794,0.0047454834,0.31562805
1498117133202,0.11390686,-0.0569458,0.28738403
1498117133222,0.17132568,-0.049453735,0.27409363
1498117133242,0.1589508,-0.08351135,0.28341675
1498117133262,0.06686401,-0.027923584,0.22492981
1498117133282,-0.05255127,-0.0066986084,0.10092163
1498117133305,-0.03956604,0.04736328,0.046707153
1498117133322,0.011291504,0.090270996,0.029449463
1498117133343,0.15040588,0.16479492,0.111312866
1498117133364,0.19682312,0.1739502,0.14337158
1498117133384,0.16047668,0.08508301,0.08580017
1498117133405,0.120773315,0.043548584,0.013412476
1498117133423,0.08106995,0.08981323,0.013580322
1498117133443,0.086883545,0.18830872,0.06716919
1498117133463,0.17453003,0.20678711,0.14077759
1498117133485,0.25914,-0.037246704,0.22981262
1498117133504,0.2389679,-0.16949463,0.2521057
1498117133526,0.15254211,-0.2828064,0.19544983
1498117133542,-0.10614014,-0.15849304,0.09954834
1498117133562,-0.3666687,0.23335266,0.099243164
1498117133583,-0.3459015,0.33659363,0.24401855
1498117133602,0.12643433,-0.04045105,0.3787079
1498117133622,0.40267944,-0.2667694,0.31211853
1498117133642,0.33457947,-0.2559204,0.1995697
1498117133662,0.1267395,-0.11390686,0.12979126
1498117133683,-0.14385986,0.008422852,0.040145874
1498117133703,-0.3246765,0.044769287,0.008682251
1498117133724,-0.352005,0.0756073,0.025177002
1498117133744,-0.25839233,0.07118225,0.10932922
1498117133763,-0.060333252,0.0388031,0.1589508
1498117133786,7.4768066E-4,0.046142578,0.16352844
1498117133804,-0.10736084,0.02017212,0.104278564
1498117133824,-0.21975708,-0.056793213,0.046401978
1498117133843,-0.106918335,-0.061828613,0.05419922
1498117133864,0.053588867,-5.950928E-4,0.07084656
1498117133886,0.06472778,0.05392456,0.05908203
1498117133904,-0.039108276,0.07408142,0.032669067
1498117133925,-0.06262207,0.0043029785,-0.015289307
1498117133945,-0.018798828,-0.044418335,0.008834839
1498117133966,0.16964722,-0.08869934,0.056030273
1498117133985,0.39215088,-0.13131714,0.05404663
1498117134007,0.41429138,-0.14230347,0.010818481
1498117134027,0.30815125,-0.20445251,-0.06889343
1498117134048,0.15055847,-0.17926025,-0.11805725
1498117134067,0.030380249,-0.101379395,-0.104156494
1498117134089,0.05496216,-0.045944214,-0.07621765
1498117134138,0.20141602,-0.09069824,-0.096069336
1498117134138,0.25317383,-0.26631165,-0.27000427
1498117134145,0.11039734,-0.2339325,-0.54182434
1498117134167,-0.3446808,0.04385376,-0.68904114
1498117134186,-0.6606293,0.3210144,-0.69499207
1498117134210,-0.475708,0.26054382,-0.5743561
1498117134229,0.0410614,0.015289307,-0.4880829
1498117134249,0.3796234,-0.13848877,-0.45188904
1498117134270,0.27088928,-0.11665344,-0.462265
1498117134290,-0.15348816,-0.0131073,-0.43234253
1498117134309,-0.35276794,0.06185913,-0.38911438
1498117134329,-0.31443787,0.19395447,-0.26649475
1498117134352,-0.16081238,0.15699768,-0.1257019
1498117134371,0.0132751465,0.09790039,-0.04949951
1498117134392,0.1331482,0.15531921,-0.0667572
1498117134411,0.096191406,0.24343872,-0.10371399
1498117134430,-0.07911682,0.26008606,-0.10966492
1498117134451,-0.21731567,0.1530304,-0.0072021484
1498117134471,-0.14202881,0.101867676,0.08488464
1498117134490,-0.035751343,0.13531494,0.10290527
1498117134512,-0.03315735,0.15455627,0.10443115
1498117134531,-0.07040405,0.17425537,0.11512756
1498117134550,-0.09500122,0.18144226,0.16337585
1498117134572,-0.13287354,0.18952942,0.24539185
1498117134592,-0.09790039,0.20175171,0.2802124
1498117134641,0.004714966,0.11959839,0.22140503
1498117134642,0.064575195,0.025817871,0.16506958
1498117134652,-0.010101318,0.06385803,0.14260864
1498117134674,-0.08782959,0.15699768,0.12994385
1498117134693,-0.049484253,0.25505066,0.13925171
1498117134714,0.0448761,0.20770264,0.12857056
1498117134733,0.06274414,0.14509583,0.09359741
1498117134752,0.023956299,-0.037094116,-0.06645203
1498117134772,-0.011016846,-0.22691345,-0.12110901
1498117134793,-0.02444458,-0.08076477,-0.002609253
1498117134815,0.012817383,0.30863953,0.25990295
1498117134833,0.22904968,0.3514099,0.503006
1498117134853,0.43322754,0.07499695,0.47323608
1498117134873,0.4671173,-0.18566895,0.34953308
1498117134895,0.31196594,-0.25332642,0.30830383
1498117134916,0.061523438,-0.11772156,0.25698853
1498117134934,-0.1789856,-0.058013916,0.18231201
1498117134955,-0.28573608,-0.021057129,-0.03804016
1498117134975,-0.42530823,0.021865845,-0.1789856
1498117134997,-0.4294281,0.069503784,-0.1395874
1498117135016,-0.3348999,0.08691406,0.010665894
1498117135035,-0.22496033,0.018951416,0.076034546
1498117135054,-0.20465088,-0.02609253,0.03678894
1498117135076,-0.16035461,-0.07725525,-0.019256592
1498117135095,-0.055145264,-0.01739502,-0.0053710938
1498117135137,0.008239746,-0.040298462,0.057861328
1498117135138,-0.020629883,-0.09436035,0.0690155
1498117135154,-0.06965637,-0.104888916,0.0460968
1498117135174,-0.11546326,-0.11114502,0.023956299
1498117135196,-0.0337677,-0.21896362,0.026245117
1498117135218,0.06121826,-0.30937195,0.038772583
1498117135235,0.1108551,-0.31227112,0.032058716
1498117135256,0.09024048,-0.18919373,-0.01574707
1498117135277,0.0410614,-0.08198547,-0.057281494
1498117135298,-0.021850586,-5.950928E-4,-0.07728577
1498117135320,-0.118515015,-0.008529663,-0.08615112
1498117135338,-0.08415222,-0.072052,-0.073776245
1498117135356,-0.026123047,-0.1736145,-0.03437805
1498117135376,0.11543274,-0.16184998,7.4768066E-4
1498117135399,0.23316956,-0.23027039,0.02670288
1498117135420,0.099090576,-0.24247742,-0.08996582
1498117135437,-0.310318,-0.054656982,-0.3863678
1498117135458,-0.54411316,0.0337677,-0.50227356
1498117135478,-0.16065979,-0.20965576,-0.37583923
1498117135499,0.42634583,-0.46803284,-0.2512207
1498117135519,0.5909729,-0.46925354,-0.15211487
1498117135549,0.3721466,-0.3321228,-0.122802734
1498117135558,-0.028411865,-0.20185852,-0.20648193
1498117135577,-0.20097351,0.046905518,-0.46409607
1498117135598,-0.34757996,0.111190796,-0.5323639
1498117135617,-0.31948853,0.11088562,-0.38804626
1498117135636,-0.22343445,0.14768982,-0.17837524
1498117135657,-0.15318298,0.23825073,-0.031784058
1498117135677,-0.09744263,0.20602417,0.01663208
1498117135697,-0.012084961,0.038650513,0.061065674
1498117135717,0.03327942,-0.034347534,0.10031128
1498117135739,-0.002456665,0.058502197,0.082595825
1498117135758,-0.10598755,0.104019165,0.07923889
1498117135777,-0.14401245,0.11256409,0.11390686
1498117135799,-0.10095215,0.06858826,0.12397766
1498117135818,-0.037124634,0.13638306,0.049301147
1498117135839,-0.059265137,0.22633362,0.01663208
1498117135858,-0.09240723,0.22114563,0.08963013
1498117135880,-0.012084961,0.13439941,0.18093872
1498117135899,0.07344055,0.0067443848,0.17681885
1498117135919,0.033432007,-0.14016724,0.13787842
1498117135939,-0.112716675,-0.27149963,0.13879395
1498117135961,-0.1359253,-0.29486084,0.14199829
1498117135981,-0.056365967,-0.016174316,0.10978699
1498117136003,0.23683167,0.42852783,0.14949036
1498117136022,0.3628235,0.59069824,0.1490326
1498117136043,0.17926025,0.52259827,0.008224487
1498117136061,-0.15089417,0.38362122,-0.13287354
1498117136083,-0.38484192,0.26878357,-0.072250366
1498117136102,-0.32574463,0.1973114,0.16337585
1498117136143,-0.003829956,0.071640015,0.37548828
1498117136144,0.17941284,-0.13192749,0.46070862
1498117136163,0.15544128,-0.19911194,0.4743042
1498117136184,0.07695007,-0.23728943,0.46253967
1498117136207,-0.084609985,-0.1850586,0.3480072
1498117136224,-0.16616821,-0.12504578,0.16307068
1498117136242,-0.16218567,-0.10809326,0.038009644
1498117136263,-0.0894928,-0.09236145,0.023803711
1498117136284,-0.08125305,-0.018005371,0.06915283
1498117136305,-0.09851074,-0.0077667236,0.04975891
1498117136324,-0.044296265,0.036209106,0.011428833
1498117136345,0.06411743,0.026138306,0.015106201
1498117136365,0.14704895,-0.012954712,0.01020813
1498117136385,0.12245178,-0.05908203,-0.042922974
1498117136404,0.045181274,-0.056640625,-0.113479614
1498117136426,0.0053253174,-0.10809326,-0.15501404
1498117136444,-0.0016937256,-0.14367676,-0.15409851
1498117136463,0.012664795,-0.12336731,-0.1333313
1498117136487,0.028076172,-0.16520691,-0.13119507
1498117136502,0.06213379,-0.258667,-0.16662598
1498117136524,0.1209259,-0.29837036,-0.24099731
1498117136543,0.12734985,-0.22079468,-0.29122925
1498117136563,0.016326904,-0.1184845,-0.3040619
1498117136584,-0.010848999,0.037582397,-0.2904663
1498117136603,0.042434692,-0.062438965,-0.22953796
1498117136625,0.16108704,-0.15696716,-0.2387085
1498117136643,0.23652649,-0.10229492,-0.3149109
1498117136664,0.30448914,-0.089157104,-0.35736084
1498117136683,0.30570984,-0.038772583,-0.46899414
1498117136706,0.047027588,0.14845276,-0.6696472
1498117136724,-0.37934875,0.33598328,-0.76264954
1498117136747,-0.38545227,0.30955505,-0.62475586
1498117136769,-0.1295166,0.0953064,-0.50427246
1498117136788,0.20553589,-0.022735596,-0.47479248
1498117136807,0.36816406,-0.13208008,-0.4683838
1498117136830,0.4324646,-0.071746826,-0.58917236
1498117136848,0.19514465,0.060638428,-0.752121
1498117136867,-0.09942627,0.050109863,-0.7838745
1498117136889,-0.14570618,-0.017700195,-0.64064026
1498117136907,-0.05606079,0.09088135,-0.51449585
1498117136929,-0.034225464,0.14555359,-0.39157104
1498117136950,-0.018188477,0.05606079,-0.26649475
1498117136967,0.01586914,-0.07984924,-0.16693115
1498117136988,0.043807983,-0.08503723,-0.1269226
1498117137009,0.034194946,-0.04762268,-0.05758667
1498117137031,0.045791626,-0.07374573,-0.033920288
1498117137048,-0.01940918,0.024459839,-0.096832275
1498117137068,-0.11180115,0.053466797,-0.17303467
1498117137091,-0.20280457,0.02217102,-0.18739319
1498117137142,-0.24450684,0.0073547363,-0.16571045
1498117137142,-0.21487427,0.08782959,-0.1321106
1498117137147,-0.15745544,0.22114563,-0.11073303
1498117137166,-0.09561157,0.29856873,-0.15455627
1498117137186,-0.10232544,0.27993774,-0.16494751
1498117137207,-0.13897705,0.16052246,-0.18388367
1498117137227,-0.20755005,0.06568909,-0.19929504
1498117137248,-0.17028809,0.024154663,-0.22816467
1498117137268,-0.03727722,0.019256592,-0.22236633
1498117137290,0.07984924,0.06048584,-0.1846466
1498117137308,0.17193604,0.10018921,-0.20892334
1498117137328,0.22279358,0.18632507,-0.29534912
1498117137352,0.23989868,0.05102539,-0.37156677
1498117137368,0.16705322,-0.1088562,-0.36346436
1498117137390,-0.00642395,-0.04701233,-0.31948853
1498117137412,-0.08720398,0.32528687,-0.22831726
1498117137428,-0.15074158,0.52137756,-0.047973633
1498117137449,0.05114746,0.24023438,0.11924744
1498117137468,0.25975037,-0.14245605,0.17514038
1498117137488,0.29226685,-0.26402283,0.0690155
1498117137509,0.14506531,-0.16352844,-0.30070496
1498117137529,-0.15211487,-0.10733032,-0.63513184
1498117137549,-0.36727905,-0.058624268,-0.6475067
1498117137569,-0.34300232,-0.033111572,-0.4993744
1498117137591,-0.20358276,-0.038467407,-0.4256134
1498117137621,-0.15791321,-0.10443115,-0.34101868
1498117137633,-0.113479614,-0.19636536,-0.3541565
1498117137650,-0.03727722,-0.24537659,-0.35354614
1498117137670,0.032821655,-0.18965149,-0.3343048
1498117137691,0.04121399,-0.11114502,-0.3089447
1498117137711,0.031600952,-0.035720825,-0.40896606
1498117137731,-0.008255005,-0.055877686,-0.5790863
1498117137752,-0.028564453,-0.098480225,-0.66918945
1498117137772,-0.017120361,-0.10107422,-0.677124
1498117137791,0.044418335,-0.09573364,-0.7043152
1498117137815,0.0519104,-0.050064087,-0.7227936
1498117137832,0.060760498,-0.08518982,-0.79426575
1498117137851,0.086120605,-0.15452576,-0.86587524
1498117137872,0.0778656,-0.21499634,-0.9298706
1498117137898,0.07191467,-0.23027039,-0.9422302
1498117137912,0.05557251,-0.15879822,-0.9020691
1498117137932,0.06794739,-0.10229492,-0.81655884
1498117137952,0.13604736,-0.17590332,-0.7556305
1498117137974,0.2840271,-0.4144287,-0.8173218
1498117137993,0.16781616,-0.49446106,-1.0732574
1498117138017,-0.2805481,-0.34968567,-1.2340698
1498117138039,-0.52731323,0.010101318,-1.3751678
1498117138054,-0.6206207,0.060638428,-1.2336121
1498117138074,-0.263443,-0.035873413,-1.0566101
1498117138097,0.10551453,-0.20904541,-1.0949402
1498117138127,0.24447632,-0.33258057,-1.219101
1498117138136,0.1368103,-0.31303406,-1.3686066
1498117138155,-0.13638306,-0.12887573,-1.5124512
1498117138178,-0.34254456,0.020019531,-1.5303192
1498117138196,-0.3801117,0.13241577,-1.4528961
1498117138219,-0.4022522,0.16418457,-1.4203644
1498117138239,-0.40637207,0.102645874,-1.3708954
1498117138258,-0.3287964,-0.09283447,-1.345398
1498117138277,-0.18540955,-0.2363739,-1.2725525
1498117138298,-0.04093933,-0.34602356,-1.1314392
1498117138319,-0.0032196045,-0.24049377,-1.0085144
1498117138339,-0.12736511,-0.09436035,-0.9193268
1498117138359,-0.20953369,-0.042434692,-0.8338165
1498117138379,-0.16616821,-0.010055542,-0.8025055
1498117138398,-0.1295166,0.03514099,-0.79823303
1498117138418,-0.20005798,0.06828308,-0.7606659
1498117138440,-0.22389221,0.10707092,-0.63604736
1498117138460,-0.15974426,0.14128113,-0.51068115
1498117138480,0.025939941,0.10951233,-0.44332886
1498117138498,0.21852112,0.031173706,-0.4303589
1498117138519,0.32403564,0.08079529,-0.43585205
1498117138541,0.3232727,0.13134766,-0.45951843
1498117138559,0.2592926,0.20114136,-0.5202942
1498117138580,0.17819214,0.24099731,-0.5296173
1498117138598,0.13787842,0.29214478,-0.49952698
1498117138618,0.110702515,0.31536865,-0.47631836
1498117138638,0.11665344,0.26542664,-0.4427185
1498117138658,0.06977844,0.12478638,-0.51068115
1498117138678,-0.1250763,0.18663025,-0.60780334
1498117138700,-0.30543518,0.3605652,-0.5482483
1498117138720,-0.26741028,0.37583923,-0.2919922
1498117138742,-0.065979004,0.21548462,-0.06628418
1498117138762,0.18965149,-0.06976318,-0.04475403
1498117138781,0.35183716,-0.36221313,-0.12432861
1498117138800,0.33059692,-0.50819397,-0.13287354
1498117138824,0.13024902,-0.49186707,-0.12294006
1498117138843,-0.01361084,-0.35456848,-0.14509583
1498117138862,-0.31474304,-0.2078247,-0.2964325
1498117138881,-0.45065308,-0.0975647,-0.42897034
1498117138901,-0.40896606,-0.07481384,-0.368042
1498117138924,-0.17425537,-0.07878113,-0.23274231
1498117138943,0.013580322,-0.10458374,-0.1383667
1498117138962,0.094818115,-0.14932251,-0.12814331
1498117138983,0.14476013,-0.20904541,-0.25228882
1498117139002,0.104904175,-0.2828064,-0.39109802
1498117139024,0.0039520264,-0.28601074,-0.45524597
1498117139044,-0.12631226,-0.29455566,-0.45967102
1498117139062,-0.16601563,-0.3037262,-0.4465332
1498117139082,-0.10920715,-0.2719574,-0.4683838
1498117139103,0.05999756,-0.28311157,-0.47006226
1498117139144,0.13330078,-0.28126526,-0.47555542
1498117139145,0.062286377,-0.26446533,-0.53404236
1498117139164,0.043045044,-0.2635498,-0.561676
1498117139183,0.115737915,-0.23545837,-0.52549744
1498117139206,0.1394043,-0.24324036,-0.46409607
1498117139226,0.10795593,-0.28952026,-0.45265198
1498117139245,0.123687744,-0.3206787,-0.4523468
1498117139264,0.15605164,-0.34709167,-0.436615
1498117139285,0.2351532,-0.25515747,-0.41722107
1498117139306,0.3156433,-0.27592468,-0.39401245
1498117139325,0.27211,-0.32312012,-0.44914246
1498117139347,-0.0044403076,-0.28875732,-0.6308594
1498117139364,-0.3433075,-0.16581726,-0.73347473
1498117139387,-0.5140381,0.02154541,-0.71943665
1498117139407,-0.4611969,0.142807,-0.71362305
1498117139426,-0.17593384,0.049804688,-0.7224884
1498117139447,0.12245178,-0.03387451,-0.70233154
1498117139465,0.19438171,-0.11100769,-0.6267395
1498117139487,0.17575073,-0.07221985,-0.58947754
1498117139506,-0.004135132,-0.0068511963,-0.6256714
1498117139526,-0.18540955,0.091796875,-0.6186371
1498117139549,-0.25305176,0.15882874,-0.46531677
1498117139568,-0.18218994,0.049804688,-0.2622223
1498117139589,0.015411377,-0.040603638,-0.16921997
1498117139604,0.12338257,-0.028686523,-0.14111328
1498117139625,0.108566284,0.10095215,-0.08996582
1498117139645,0.016937256,0.14004517,-0.06506348
1498117139667,-0.011474609,0.1269226,-0.02017212
1498117139687,-0.018035889,0.07926941,0.027770996
1498117139707,0.010681152,0.0717926,0.04685974
1498117139729,-0.1136322,0.058044434,0.08824158
1498117139749,-0.20755005,0.06263733,0.12413025
1498117139767,-0.2043457,0.12387085,0.18980408
1498117139791,-0.111953735,0.15943909,0.2434082
1498117139807,0.024261475,0.11683655,0.2562256
1498117139828,0.12338257,0.026901245,0.25637817
1498117139850,0.18385315,-0.01234436,0.25256348
1498117139868,0.23316956,-0.0619812,0.23408508
1498117139888,0.32403564,-0.083358765,0.1355896
1498117139908,0.33059692,0.03147888,-0.0113220215
1498117139929,0.36221313,0.07316589,-0.11454773
1498117139951,0.31518555,0.0059814453,-0.17318726
1498117139971,0.1146698,-0.030059814,-0.24191284
1498117139990,-0.27290344,0.061553955,-0.27397156
1498117140013,-0.60076904,0.20739746,-0.22633362
1498117140030,-0.4807434,0.31430054,0.023651123
1498117140060,-0.028564453,0.23687744,0.3099823
1498117140067,0.17041016,0.01071167,0.35212708
1498117140087,0.18995667,-0.16612244,0.29455566
1498117140107,0.16308594,-0.33013916,0.27638245
1498117140128,0.06427002,-0.3359375,0.3023529
1498117140148,-0.118515015,-0.14260864,0.20599365
1498117140168,-0.25808716,-0.038467407,0.0131073
1498117140190,-0.3026886,-0.0619812,-0.096221924
1498117140210,-0.23487854,-0.04701233,-0.027664185
1498117140230,-0.19319153,0.039413452,0.09039307
1498117140250,-0.13745117,0.12966919,0.099853516
1498117140273,-0.0806427,0.12478638,0.06808472
1498117140290,-0.058044434,0.013763428,0.038009644
1498117140309,-0.036819458,-0.0460968,0.047470093
1498117140330,-0.03956604,-0.051742554,0.0448761
1498117140350,-0.054382324,-0.09236145,0.019073486
1498117140369,-0.060028076,-0.15162659,-0.019561768
1498117140389,-0.04689026,-0.17758179,-0.026748657
1498117140410,-0.018341064,-0.19514465,-0.038345337
1498117140431,0.07862854,-0.26631165,-0.05545044
1498117140450,0.17407227,-0.28463745,-0.08401489
1498117140470,0.1697998,-0.2598877,-0.09515381
1498117140490,0.14811707,-0.14230347,-0.13867188
1498117140513,0.14001465,-0.10961914,-0.14723206
1498117140531,0.18537903,-0.13986206,-0.10462952
1498117140553,0.2731781,-0.08457947,-0.061401367
1498117140573,0.3733673,-0.0816803,-0.048583984
1498117140592,0.34892273,-0.1862793,-0.11332703
1498117140619,0.093444824,-0.1285553,-0.30162048
1498117140632,-0.25152588,0.046905518,-0.464859
1498117140652,-0.48960876,0.15501404,-0.47418213
1498117140672,-0.51174927,0.19639587,-0.41111755
1498117140694,-0.42240906,0.16616821,-0.2778015
1498117140714,-0.045822144,-0.019073486,-0.26374817
1498117140734,0.28173828,-0.124435425,-0.31092834
1498117140755,0.29348755,-0.08656311,-0.38224792
1498117140776,0.049316406,0.051940918,-0.5062561
1498117140796,-0.21975708,0.07698059,-0.59436035
1498117140815,-0.38468933,0.10173035,-0.5596924
1498117140836,-0.35995483,0.14448547,-0.40759277
1498117140857,-0.22801208,0.16723633,-0.24176025
1498117140875,-0.10813904,0.16021729,-0.17883301
1498117140895,-0.042617798,0.108444214,-0.08293152
1498117140915,0.06518555,0.075912476,-0.013916016
1498117140953,0.11680603,0.039108276,0.058166504
1498117140958,0.06488037,0.052246094,0.07191467
1498117140975,-0.029327393,0.042160034,0.0728302
1498117140996,-0.111953735,-0.02319336,0.063964844
1498117141014,-0.18830872,0.021392822,0.05343628
1498117141036,-0.24053955,0.12265015,0.089767456
1498117141055,-0.15486145,0.11882019,0.21606445
1498117141074,0.058776855,0.07392883,0.2854004
1498117141094,0.14659119,4.7302246E-4,0.31900024
1498117141117,0.20324707,-0.04411316,0.2168274
1498117141135,0.102142334,-0.120162964,0.16352844
1498117141155,0.09176636,-0.07496643,0.12611389
1498117141175,0.1870575,0.05895996,0.09725952
1498117141195,0.26234436,0.12921143,0.07098389
1498117141220,0.20980835,0.05834961,-0.026748657
1498117141236,0.016326904,-0.037857056,-0.12768555
1498117141259,-0.23365784,-0.092666626,-0.06614685
1498117141275,-0.40789795,0.05407715,0.11009216
1498117141296,-0.3924713,0.18663025,0.20690918
1498117141317,-0.24450684,0.32803345,0.36999512
1498117141337,0.26005554,0.093933105,0.41856384
1498117141357,0.5227051,-0.14077759,0.4058838
1498117141377,0.35488892,-0.18614197,0.40740967
1498117141396,0.0778656,-0.114974976,0.39733887
1498117141417,-0.08888245,-0.09236145,0.30021667
1498117141439,-0.10813904,-0.07817078,0.10076904
1498117141457,-0.1872406,0.016357422,0.0028839111
1498117141477,-0.28741455,0.16143799,0.06976318
1498117141497,-0.24938965,0.19946289,0.13406372
1498117141517,-0.1631012,0.14341736,0.22996521
1498117141538,0.070999146,0.0705719,0.2053833
1498117141558,0.16827393,0.013763428,0.11528015
1498117141577,0.0677948,-0.03465271,0.058013916
1498117141599,-0.086135864,0.03666687,0.051757813
1498117141618,-0.062164307,0.054382324,0.032669067
1498117141639,0.0019683838,-0.06991577,0.060455322
1498117141660,0.0569458,-0.10183716,0.09420776
1498117141678,0.08963013,-0.074661255,0.05114746
1498117141698,0.10520935,-0.048233032,0.0077667236
1498117141719,0.10658264,-0.053741455,-0.042770386
1498117141740,0.12107849,-0.09436035,-0.052856445
1498117141759,0.143219,-0.09863281,-0.06996155
1498117141782,0.116500854,-0.073272705,-0.06506348
1498117141800,0.078933716,-0.037857056,-0.039413452
1498117141823,0.055877686,-0.09970093,0.004562378
1498117141842,0.107040405,-0.1749878,0.05328369
1498117141863,0.25317383,-0.29013062,0.06503296
1498117141882,0.3405304,-0.42314148,-0.06536865
1498117141902,0.14552307,-0.44863892,-0.18006897
1498117141924,-0.04750061,-0.2954712,-0.378891
1498117141944,-0.4109497,-0.080459595,-0.45845032
1498117141963,-0.41079712,-0.0015106201,-0.4561615
1498117141984,-0.1162262,-0.10946655,-0.4376831
1498117142004,0.21224976,-0.24920654,-0.45280457
1498117142025,0.2928772,-0.20935059,-0.4413452
1498117142045,0.11558533,-0.011886597,-0.44500732
1498117142064,-0.12553406,0.14677429,-0.46165466
1498117142086,-0.21609497,0.09408569,-0.43310547
1498117142104,-0.27397156,0.01651001,-0.38911438
1498117142147,-0.2987213,-0.067474365,-0.2881775
1498117142147,-0.266037,-0.040298462,-0.20709229
1498117142164,-0.14355469,0.009338379,-0.13729858
1498117142182,-0.028717041,0.05758667,-0.09072876
1498117142206,0.019683838,0.018951416,-0.025512695
1498117142228,-0.033309937,-0.025787354,0.001663208
1498117142247,-0.113479614,0.017120361,-0.059265137
1498117142267,-0.18005371,0.104019165,-0.11088562
1498117142285,-0.23472595,0.16860962,-0.038345337
1498117142306,-0.24267578,0.15808105,0.078323364
1498117142324,-0.26939392,0.19288635,0.109939575
1498117142344,-0.2590027,0.18159485,0.14628601
1498117142363,-0.17532349,0.11592102,0.1812439
1498117142383,-0.0743866,0.10050964,0.24325562
1498117142404,0.10443115,0.09576416,0.3310547
1498117142424,0.18217468,0.13256836,0.36236572
1498117142445,0.1464386,0.3026886,0.25775146
1498117142464,0.09146118,0.40393066,0.09649658
1498117142488,0.11558533,0.17578125,0.038467407
1498117142504,0.061523438,-0.14581299,-0.0070343018
1498117142524,-0.01651001,-0.19270325,-0.029190063
1498117142545,-0.08476257,0.09072876,-0.018798828
1498117142565,-0.20510864,0.50701904,0.17010498
1498117142585,-0.081100464,0.4129486,0.44085693
1498117142605,0.18034363,0.009338379,0.5043793
1498117142625,0.29379272,-0.2745514,0.4449768
1498117142646,0.15925598,-0.24829102,0.43780518
1498117142695,-0.062927246,-0.0790863,0.36938477
1498117142695,-0.23396301,0.008880615,0.17437744
1498117142706,-0.29138184,0.06706238,-0.032699585
1498117142725,-0.29978943,0.09072876,-0.0864563
1498117142746,-0.2843628,0.09194946,-0.03895569
1498117142766,-0.16845703,0.06904602,0.102142334
1498117142786,0.049316406,0.06813049,0.12260437
1498117142807,0.15193176,0.09729004,0.029449463
1498117142827,0.0778656,0.050567627,-0.06384277
1498117142847,-0.07652283,-0.023803711,-0.10217285
1498117142867,-0.13546753,-0.008834839,-0.10371399
1498117142887,-0.11256409,0.06813049,-0.10202026
1498117142908,-0.0717926,-0.02822876,-0.04460144
1498117142931,0.021514893,-0.12168884,-0.01651001
1498117142951,0.07008362,-0.2351532,-0.026123047
1498117142969,0.15330505,-0.22537231,-0.057891846
1498117142991,0.19758606,-0.15940857,-0.047821045
1498117143009,0.2562256,-0.11680603,-0.02507019
1498117143031,0.31884766,-0.12168884,-0.036972046
1498117143052,0.28372192,-0.16368103,-0.06858826
1498117143071,0.2224884,-0.087631226,-0.14387512
1498117143092,0.24508667,-0.119400024,-0.21456909
1498117143111,0.1661377,-0.22767639,-0.31826782
1498117143148,-0.1777649,-0.20996094,-0.37278748
1498117143150,-0.3915558,-0.011276245,-0.39187622
1498117143173,-0.5740509,0.1270752,-0.2978058
1498117143191,-0.24176025,0.04736328,-0.21014404
1498117143212,0.30189514,-0.18597412,-0.22724915
1498117143232,0.57325745,-0.32388306,-0.24343872
1498117143254,0.42115784,-0.2472229,-0.3668213
1498117143273,0.036636353,3.2043457E-4,-0.5581665
1498117143292,-0.30070496,0.10600281,-0.5987854
1498117143312,-0.27030945,0.08569336,-0.3888092
1498117143334,-0.034072876,0.052856445,-0.1973114
1498117143354,0.070236206,0.03147888,-0.13287354
1498117143374,0.07008362,0.03239441,-0.113479614
1498117143393,-0.00642395,0.043685913,-0.09805298
1498117143412,-0.036514282,0.103256226,-0.03605652
1498117143431,-0.040634155,0.1478424,0.03968811
1498117143452,-0.063079834,0.07972717,0.10321045
1498117143472,-0.15226746,0.12631226,0.116500854
1498117143493,-0.24450684,0.247406,0.1158905
1498117143512,-0.2868042,0.33399963,0.1615448
1498117143532,-0.27366638,0.32437134,0.24095154
1498117143553,-0.22343445,0.31628418,0.27790833
1498117143574,-0.15699768,0.2696991,0.34068298
1498117143593,0.042282104,0.14326477,0.35717773
1498117143612,0.28463745,0.040023804,0.3222046
1498117143635,0.26783752,0.102645874,0.25424194
1498117143654,0.0848999,0.29153442,0.13742065
1498117143673,-0.07362366,0.46073914,0.06932068
1498117143695,-0.0015411377,0.32009888,0.11817932
1498117143715,0.16278076,0.067977905,0.20980835
1498117143737,0.022125244,0.11546326,0.21850586
1498117143758,-0.30360413,0.2559662,0.1894989
1498117143779,-0.38041687,0.37538147,0.18537903
1498117143797,-0.10583496,0.12661743,0.34526062
1498117143817,0.4326172,-0.20950317,0.4544525
1498117143837,0.5799713,-0.39672852,0.45536804
1498117143859,0.3524475,-0.36968994,0.426651
1498117143877,0.07008362,-0.2168274,0.35855103
1498117143896,-0.15821838,-0.09649658,0.22140503
1498117143919,-0.30039978,-0.058776855,0.03526306
1498117143938,-0.4124756,0.019561768,-0.06201172
1498117143957,-0.45921326,0.06477356,-0.050872803
1498117143979,-0.4292755,0.070877075,0.077560425
1498117143999,-0.2328949,0.015136719,0.19636536
1498117144017,-0.021240234,-0.008682251,0.17056274
1498117144039,0.045333862,0.0078125,0.104888916
1498117144058,0.0054779053,-0.005783081,0.08213806
1498117144078,-0.043533325,0.0058288574,0.07344055
1498117144099,-0.06628418,0.011932373,0.013885498
1498117144151,-0.05026245,-0.08885193,-0.0099487305
1498117144152,-0.0016937256,-0.16093445,-0.008270264
1498117144161,0.051757813,-0.12336731,-0.009033203
1498117144178,0.06642151,-0.06427002,-0.015289307
1498117144198,0.10871887,-0.09725952,-0.03300476
1498117144218,0.24127197,-0.16918945,-0.0655365
1498117144239,0.32312012,-0.14047241,-0.123413086
1498117144261,0.21133423,-0.06549072,-0.19303894
1498117144279,0.122909546,-0.061676025,-0.22938538
1498117144300,0.10810852,-0.15971375,-0.24557495
1498117144319,0.15605164,-0.31684875,-0.25305176
1498117144342,0.16384888,-0.38923645,-0.31887817
1498117144360,-0.042617798,-0.358078,-0.3749237
1498117144378,-0.29626465,-0.12779236,-0.44470215
1498117144399,-0.793808,0.1934967,-0.36132813
1498117144420,-0.65437317,0.19059753,-0.19807434
1498117144440,0.08106995,-0.108551025,-0.19166565
1498117144462,0.5833435,-0.39183044,-0.21838379
1498117144481,0.5579834,-0.36297607,-0.22328186
1498117144502,0.20370483,-0.0778656,-0.29811096
1498117144521,-0.27534485,0.21534729,-0.36941528
1498117144541,-0.50120544,0.29734802,-0.27534485
1498117144563,-0.44561768,0.22938538,-0.1441803
1498117144584,-0.3958435,0.19075012,-0.11973572
1498117144601,-0.381485,0.11149597,-0.13485718
1498117144658,-0.3324585,-0.013259888,-0.099121094
1498117144658,-0.20999146,-0.0076141357,0.058776855
1498117144661,0.0050201416,0.08432007,0.20018005
1498117144680,0.063201904,0.09942627,0.19224548
1498117144700,-0.04109192,0.044769287,0.07374573
1498117144720,-0.16906738,0.0058288574,0.016937256
1498117144740,-0.18035889,0.055145264,0.08015442
1498117144763,-0.12553406,0.19532776,0.16567993
1498117144784,-0.079574585,0.24938965,0.19377136
1498117144803,-0.027801514,0.14753723,0.24707031
1498117144824,0.15498352,-0.073135376,0.24064636
1498117144844,0.28967285,-0.27928162,0.21026611
1498117144864,0.29762268,-0.36099243,0.1591034
1498117144884,0.2116394,-0.11619568,0.10168457
1498117144904,0.1589508,0.39248657,0.098480225
1498117144923,0.25531006,0.41020203,0.23454285
1498117144944,0.2657013,0.13348389,0.23881531
1498117144964,0.08886719,0.005065918,0.018920898
1498117144985,-0.08981323,-0.03250122,-0.042922974
1498117145006,-0.086746216,0.010101318,0.018463135
1498117145028,0.12123108,0.14265442,0.20950317
1498117145045,0.31777954,-0.03326416,0.40252686
1498117145062,0.2003479,-0.26324463,0.43122864
1498117145082,0.010528564,-0.269516,0.30830383
1498117145103,-0.102630615,-0.15498352,0.15956116
1498117145122,-0.22602844,0.021697998,0.03892517
1498117145145,-0.36239624,0.14021301,0.02456665
1498117145166,-0.28527832,0.102493286,0.057250977
1498117145186,-0.04475403,0.04827881,0.06594849
1498117145203,0.023803711,0.0053710938,0.03694153
1498117145227,-0.012084961,0.044296265,0.014038086
1498117145248,-0.14355469,0.0072021484,0.02029419
1498117145268,-0.14157104,-0.039535522,0.020446777
1498117145285,-0.05529785,0.046447754,-0.025817871
1498117145305,0.007461548,0.0977478,-0.09790039
1498117145328,-0.036361694,0.08874512,-0.119888306
1498117145348,-0.06185913,0.025817871,-0.1212616
1498117145366,-0.022460938,-0.03326416,-0.12554932
1498117145389,0.061065674,-0.08808899,-0.12799072
1498117145406,0.09146118,-0.17025757,-0.1307373
1498117145429,0.12138367,-0.16841125,-0.12187195
